Time (s),Pressure 1 (kPa),Pressure 2 (kPa),Switch State
0.131,-7.61,-7.86,1
0.151,-7.61,-7.86,1
0.172,-7.61,-7.98,1
0.191,-7.61,-7.86,1
0.212,-7.61,-7.86,1
0.232,-7.61,-7.86,1
0.251,-7.49,-7.86,1
0.272,-7.61,-7.98,1
0.291,-7.61,-7.86,1
0.312,-7.61,-7.86,1
0.332,-7.61,-7.98,1
0.352,-7.49,-7.86,1
0.372,-7.49,-7.86,1
0.392,-7.49,-7.86,1
0.412,-7.61,-7.98,1
0.432,-7.61,-7.86,1
0.452,-7.49,-7.86,1
0.472,-7.61,-7.98,1
0.492,-7.61,-7.86,1
0.511,-7.49,-7.86,1
0.532,-7.49,-7.86,1
0.532,-7.61,-7.86,1
0.552,-7.61,-7.86,1
0.572,-7.61,-7.86,1
0.593,-7.61,-7.86,1
0.613,-7.49,-7.86,1
0.632,-7.49,-7.86,1
0.653,-7.49,-7.86,1
0.673,-7.61,-7.86,1
0.692,-7.61,-7.86,1
0.712,-7.49,-7.86,1
0.733,-7.61,-7.98,1
0.753,-7.61,-7.86,1
0.772,-7.61,-7.86,1
0.792,-7.61,-7.86,1
0.813,-7.49,-7.98,1
0.832,-7.49,-7.86,1
0.853,-7.61,-7.86,1
0.872,-7.49,-7.86,1
0.892,-7.49,-7.86,1
0.912,-7.61,-7.86,1
0.932,-7.49,-7.86,1
0.932,-7.49,-7.86,1
0.953,-7.61,-7.98,1
0.972,-7.61,-7.86,1
0.993,-7.49,-7.86,1
1.013,-7.61,-7.86,1
1.032,-7.61,-7.98,1
1.053,-7.61,-7.86,1
1.073,-7.61,-7.98,1
1.092,-7.49,-7.98,1
1.113,-7.61,-7.86,1
1.133,-7.61,-7.86,1
1.153,-7.49,-7.86,1
1.173,-7.61,-7.86,1
1.194,-7.49,-7.86,1
1.213,-7.61,-7.86,1
1.233,-7.61,-7.86,1
1.253,-7.49,-7.86,1
1.273,-7.49,-7.86,1
1.293,-7.61,-7.86,1
1.312,-7.61,-7.86,1
1.333,-7.61,-7.86,1
1.353,-7.61,-7.86,1
1.373,-7.61,-7.86,1
1.393,-7.61,-7.86,1
1.413,-7.49,-7.86,1
1.433,-7.49,-7.86,1
1.453,-7.61,-7.86,1
1.473,-7.61,-7.86,1
1.493,-7.49,-7.86,1
1.513,-7.61,-7.86,1
1.533,-7.61,-7.98,1
1.553,-7.61,-7.98,1
1.573,-7.61,-7.86,1
1.593,-7.49,-7.86,1
1.613,-7.61,-7.86,1
1.634,-7.49,-7.86,1
1.653,-7.61,-7.86,1
1.673,-7.61,-7.86,1
1.693,-7.61,-7.86,1
1.713,-7.61,-7.98,1
1.733,-7.61,-7.86,1
1.754,-7.61,-7.86,1
1.774,-7.49,-7.86,1
1.794,-7.49,-7.98,1
1.814,-7.49,-7.86,1
1.834,-7.61,-7.86,1
1.854,-7.49,-7.86,1
1.874,-7.61,-7.86,1
1.894,-7.61,-7.86,1
1.913,-7.49,-7.86,1
1.934,-7.61,-7.86,1
1.954,-7.61,-7.86,1
1.973,-7.49,-7.86,1
1.994,-7.61,-7.86,1
2.014,-7.61,-7.86,1
2.034,-7.61,-7.98,1
2.054,-7.49,-7.86,1
2.074,-7.61,-7.86,1
2.094,-7.61,-7.86,1
2.114,-7.61,-7.86,1
2.134,-7.49,-7.86,1
2.154,-7.61,-7.86,1
2.174,-7.61,-7.86,1
2.195,-7.61,-7.98,1
2.215,-7.61,-7.86,1
2.234,-7.49,-7.86,1
2.254,-7.61,-7.86,1
2.274,-7.49,-7.86,1
2.294,-7.49,-7.86,1
2.314,-7.49,-7.86,1
2.334,-7.49,-7.86,1
2.354,-7.49,-7.86,1
2.374,-7.61,-7.86,1
2.395,-7.49,-7.86,1
2.414,-7.61,-7.86,1
2.434,-7.61,-7.98,1
2.454,-7.61,-7.86,1
2.475,-7.61,-7.86,1
2.494,-7.61,-7.86,1
2.515,-7.49,-7.86,1
2.534,-7.61,-7.86,1
2.534,-7.61,-7.86,1
2.555,-7.49,-7.98,1
2.575,-7.61,-7.98,1
2.595,-7.49,-7.86,1
2.615,-7.49,-7.86,1
2.634,-7.61,-7.98,1
2.655,-7.49,-7.86,1
2.675,-7.61,-7.86,1
2.695,-7.61,-7.86,1
2.715,-7.61,-7.86,1
2.735,-7.61,-7.98,1
2.755,-7.61,-7.86,1
2.775,-7.61,-7.86,1
2.795,-7.61,-7.86,1
2.815,-7.61,-7.86,1
2.835,-7.49,-7.86,1
2.855,-7.61,-7.98,1
2.874,-7.49,-7.86,1
2.895,-7.49,-7.86,1
2.915,-7.61,-7.86,1
2.935,-7.61,-7.86,1
2.955,-7.61,-7.86,1
2.976,-7.61,-7.86,1
2.995,-7.49,-7.86,1
3.015,-7.49,-7.86,1
3.036,-7.61,-7.86,1
3.056,-7.61,-7.98,1
3.076,-7.49,-7.86,1
3.096,-7.61,-7.86,1
3.116,-7.61,-7.86,1
3.136,-7.61,-7.86,1
3.156,-7.49,-7.86,1
3.176,-7.49,-7.86,1
3.196,-7.49,-7.86,1
3.215,-7.49,-7.98,1
3.236,-7.49,-7.86,1
3.256,-7.49,-7.86,1
3.275,-7.61,-7.98,1
3.296,-7.61,-7.98,1
3.315,-7.49,-7.86,1
3.336,-7.49,-7.86,1
3.356,-7.12,-7.86,1
3.377,-6.63,-7.98,1
3.397,-6.63,-7.86,1
3.417,-6.76,-7.86,1
3.437,-6.88,-7.98,1
3.456,-7.0,-7.98,1
3.477,-7.12,-7.86,1
3.496,-7.25,-7.86,1
3.516,-7.37,-7.98,1
3.536,-7.37,-7.98,1
3.556,-7.37,-7.86,1
3.577,-7.49,-7.86,1
3.596,-7.49,-7.86,1
3.617,-7.49,-7.86,1
3.637,-7.49,-7.86,1
3.657,-7.49,-7.86,1
3.676,-7.49,-7.98,1
3.697,-7.49,-7.98,1
3.717,-7.49,-7.86,1
3.737,-7.49,-7.98,1
3.737,-7.49,-8.35,1
3.757,-7.49,-8.71,1
3.777,-7.49,-8.96,1
3.797,-7.49,-8.71,1
3.817,-7.61,-8.59,1
3.837,-7.49,-8.35,1
3.857,-7.49,-8.22,1
3.877,-7.61,-8.1,1
3.897,-7.49,-8.1,1
3.917,-7.49,-7.98,1
3.938,-7.49,-7.98,1
3.957,-7.49,-7.98,1
3.977,-7.49,-7.98,1
3.998,-7.49,-7.98,1
4.017,-7.61,-7.98,1
4.037,-7.49,-7.86,1
4.058,-7.49,-7.98,1
4.077,-7.49,-7.98,1
4.097,-7.61,-7.86,1
4.117,-7.61,-7.86,1
4.138,-7.61,-7.98,1
4.138,-7.61,-7.98,1
4.158,-7.61,-7.86,1
4.178,-7.61,-7.98,1
4.198,-7.49,-7.86,1
4.218,-7.49,-7.98,1
4.238,-7.49,-7.86,1
4.258,-7.49,-7.86,1
4.278,-7.49,-7.86,1
4.298,-7.49,-7.98,1
4.318,-7.49,-7.86,1
4.338,-7.61,-7.86,1
4.358,-7.61,-7.98,1
4.378,-7.49,-7.98,1
4.398,-7.61,-7.86,1
4.418,-7.61,-7.86,1
4.439,-7.49,-7.98,1
4.458,-7.61,-7.98,1
4.478,-7.49,-7.86,1
4.498,-7.61,-7.86,1
4.518,-7.49,-7.86,1
4.538,-7.49,-7.86,1
4.538,-7.49,-7.86,1
4.559,-7.61,-7.86,1
4.579,-7.49,-7.98,1
4.598,-7.49,-7.86,1
4.618,-7.0,-7.73,1
4.639,-6.27,-6.88,1
4.658,-5.17,-5.9,1
4.678,-4.44,-5.17,1
4.699,-3.82,-4.56,1
4.718,-3.21,-4.19,1
4.738,-2.6,-3.7,1
4.758,-2.36,-3.34,1
4.778,-1.99,-2.97,1
4.798,-1.99,-2.72,1
4.818,-1.5,-2.6,0
4.838,-1.01,-2.48,0
4.858,-1.01,-2.36,0
4.878,-1.01,-2.24,0
4.898,-1.01,-2.11,0
4.919,-0.89,-1.99,0
4.939,-0.53,-1.87,0
4.939,-0.65,-1.87,0
4.959,-0.65,-1.75,0
4.98,-0.65,-1.87,0
5.0,-0.28,-1.75,0
5.019,-0.28,-1.75,0
5.039,-0.53,-1.75,0
5.059,-0.53,-1.63,0
5.079,-0.4,-1.63,0
5.1,-0.16,-1.5,0
5.119,-0.16,-1.5,0
5.139,-0.28,-1.5,0
5.159,-0.4,-1.5,0
5.18,-0.53,-1.5,0
5.2,-0.04,-1.5,0
5.22,-0.4,-1.87,0
5.239,-2.6,-3.7,0
5.259,-4.44,-5.54,0
5.28,-5.78,-8.22,0
5.299,-7.98,-9.69,0
5.319,-9.45,-10.3,0
5.34,-10.18,-10.67,0
5.36,-10.79,-10.91,0
5.38,-11.03,-11.03,0
5.401,-11.03,-11.03,0
5.42,-11.03,-11.16,0
5.44,-11.28,-11.16,0
5.461,-11.28,-11.28,0
5.48,-11.28,-11.28,0
5.5,-11.28,-11.16,0
5.52,-11.4,-11.28,0
5.54,-11.4,-11.28,0
5.56,-11.4,-11.28,0
5.58,-11.4,-11.4,0
5.6,-11.4,-11.28,0
5.62,-11.4,-11.28,0
5.64,-11.4,-11.4,1
5.66,-11.4,-11.4,1
5.68,-11.4,-11.4,1
5.7,-11.4,-11.4,1
5.72,-11.4,-11.4,1
5.74,-11.4,-11.4,1
5.761,-11.4,-11.4,1
5.781,-11.4,-11.4,1
5.8,-11.4,-11.4,1
5.821,-11.4,-11.28,1
5.84,-11.03,-10.79,1
5.861,-10.42,-9.81,1
5.88,-9.57,-8.1,1
5.901,-7.86,-6.76,1
5.921,-6.51,-5.9,1
5.941,-5.41,-5.17,1
5.961,-4.56,-4.56,1
5.981,-3.7,-4.07,1
6.0,-3.09,-3.82,1
6.02,-2.72,-3.46,1
6.041,-2.48,-3.21,0
6.06,-1.99,-2.97,0
6.081,-1.63,-2.85,0
6.101,-1.5,-2.48,0
6.12,-1.38,-2.36,0
6.14,-1.38,-2.24,0
6.14,-1.01,-2.11,0
6.161,-0.89,-2.11,0
6.181,-0.89,-2.11,0
6.201,-0.89,-1.99,0
6.221,-0.89,-1.87,0
6.24,-0.65,-1.75,0
6.261,-0.77,-1.63,0
6.281,-0.65,-1.63,0
6.301,-0.53,-1.63,0
6.321,-0.65,-1.63,0
6.341,-0.28,-1.63,0
6.361,-0.4,-1.5,0
6.381,-0.4,-1.5,0
6.401,-0.53,-1.38,0
6.421,-0.53,-1.38,0
6.441,-0.28,-1.87,0
6.461,-2.36,-3.7,0
6.481,-4.31,-5.54,0
6.501,-5.78,-8.1,0
6.52,-7.98,-9.69,0
6.541,-9.45,-10.42,0
6.561,-10.42,-10.67,0
6.582,-10.79,-10.91,0
6.601,-11.03,-11.03,0
6.621,-11.03,-11.16,0
6.642,-11.16,-11.16,0
6.661,-11.28,-11.28,0
6.681,-11.28,-11.28,0
6.701,-11.4,-11.28,0
6.722,-11.28,-11.28,0
6.742,-11.4,-11.28,0
6.761,-11.4,-11.28,0
6.781,-11.4,-11.4,0
6.802,-11.4,-11.4,0
6.821,-11.4,-11.4,0
6.842,-11.4,-11.4,0
6.861,-11.4,-11.4,1
6.882,-11.4,-11.4,1
6.902,-11.4,-11.4,1
6.922,-11.52,-11.4,1
6.941,-11.4,-11.4,1
6.962,-11.4,-11.4,1
6.981,-11.4,-11.4,1
7.002,-11.4,-11.4,1
7.021,-11.52,-11.52,1
7.041,-11.4,-11.4,1
7.062,-11.03,-10.91,1
7.081,-10.42,-10.18,1
7.101,-9.2,-8.71,1
7.122,-7.49,-7.12,1
7.142,-6.02,-6.27,1
7.162,-4.92,-5.54,1
7.181,-4.31,-4.8,1
7.202,-3.46,-4.31,1
7.222,-2.97,-3.82,1
7.242,-2.85,-3.46,1
7.261,-2.36,-3.21,1
7.281,-1.99,-3.09,0
7.302,-1.5,-2.85,0
7.321,-1.5,-2.6,0
7.342,-1.38,-2.48,0
7.363,-1.38,-2.24,0
7.383,-1.14,-2.11,0
7.403,-0.89,-1.99,0
7.423,-0.89,-1.99,0
7.443,-0.77,-2.11,0
7.463,-0.77,-1.99,0
7.483,-0.65,-1.75,0
7.503,-0.53,-1.75,0
7.523,-0.53,-1.63,0
7.542,-0.53,-1.63,0
7.563,-0.53,-1.63,0
7.583,-0.16,-1.63,0
7.603,-0.16,-1.63,0
7.623,-0.28,-1.5,0
7.643,-0.28,-1.38,0
7.663,-0.28,-1.38,0
7.683,-0.4,-1.75,0
7.703,-2.48,-3.7,0
7.723,-4.31,-5.54,0
7.743,-5.78,-8.22,0
7.763,-7.98,-9.57,0
7.783,-9.45,-10.3,0
7.804,-10.42,-10.54,0
7.824,-10.67,-10.91,0
7.843,-10.91,-11.03,0
7.864,-11.03,-11.03,0
7.883,-11.16,-11.16,0
7.903,-11.28,-11.16,0
7.924,-11.28,-11.28,0
7.944,-11.28,-11.16,0
7.963,-11.4,-11.28,0
7.984,-11.4,-11.28,0
8.004,-11.4,-11.4,0
8.024,-11.28,-11.4,0
8.044,-11.4,-11.28,0
8.064,-11.4,-11.28,0
8.084,-11.4,-11.28,0
8.104,-11.4,-11.28,1
8.124,-11.4,-11.4,1
8.144,-11.4,-11.4,1
8.164,-11.52,-11.4,1
8.184,-11.4,-11.4,1
8.204,-11.4,-11.4,1
8.225,-11.52,-11.4,1
8.244,-11.52,-11.4,1
8.264,-11.52,-11.4,1
8.285,-11.4,-11.4,1
8.304,-10.91,-10.79,1
8.324,-10.3,-9.81,1
8.344,-9.32,-8.22,1
8.364,-7.49,-6.76,1
8.384,-6.02,-5.9,1
8.404,-5.05,-5.17,1
8.425,-4.31,-4.56,1
8.445,-3.46,-4.07,1
8.464,-3.09,-3.7,1
8.484,-2.72,-3.46,1
8.504,-2.48,-3.21,1
8.525,-2.11,-2.97,0
8.544,-1.38,-2.72,0
8.544,-1.38,-2.48,0
8.564,-1.26,-2.36,0
8.584,-1.38,-2.24,0
8.604,-1.14,-2.11,0
8.624,-0.77,-1.99,0
8.644,-0.89,-1.99,0
8.664,-0.77,-1.99,0
8.684,-0.77,-1.87,0
8.704,-0.77,-1.75,0
8.724,-0.4,-1.63,0
8.744,-0.53,-1.63,0
8.765,-0.53,-1.63,0
8.784,-0.53,-1.63,0
8.805,-0.28,-1.63,0
8.824,-0.16,-1.5,0
8.844,-0.28,-1.38,0
8.864,-0.4,-1.38,0
8.885,-0.4,-1.26,0
8.904,-0.65,-1.75,0
8.924,-2.6,-3.7,0
8.944,-4.44,-5.54,0
8.944,-5.78,-8.22,0
8.964,-7.98,-9.69,0
8.985,-9.57,-10.3,0
9.005,-10.42,-10.67,0
9.025,-10.79,-10.91,0
9.044,-11.03,-11.03,0
9.064,-11.03,-11.16,0
9.085,-11.16,-11.16,0
9.105,-11.28,-11.28,0
9.124,-11.28,-11.28,0
9.145,-11.28,-11.28,0
9.165,-11.4,-11.28,0
9.184,-11.4,-11.28,0
9.205,-11.4,-11.28,0
9.224,-11.4,-11.28,0
9.245,-11.4,-11.4,0
9.264,-11.4,-11.28,0
9.284,-11.4,-11.4,0
9.305,-11.4,-11.4,1
9.325,-11.4,-11.4,1
9.345,-11.4,-11.4,1
9.365,-11.4,-11.4,1
9.385,-11.4,-11.4,1
9.406,-11.4,-11.4,1
9.425,-11.4,-11.4,1
9.445,-11.52,-11.4,1
9.465,-11.4,-11.4,1
9.485,-11.4,-11.4,1
9.505,-10.91,-10.79,1
9.525,-10.18,-10.18,1
9.545,-8.83,-8.83,1
9.566,-7.0,-7.37,1
9.585,-5.66,-6.15,1
9.605,-4.8,-5.41,1
9.625,-4.07,-4.8,1
9.645,-3.21,-4.19,1
9.665,-2.85,-3.82,1
9.685,-2.48,-3.46,1
9.705,-2.24,-3.21,1
9.725,-1.75,-2.97,0
9.745,-1.38,-2.85,0
9.745,-1.38,-2.6,0
9.766,-1.26,-2.36,0
9.786,-1.14,-2.11,0
9.806,-0.89,-2.11,0
9.839,-0.89,-2.11,0
9.846,-0.89,-1.99,0
9.869,-0.89,-1.99,0
9.886,-0.77,-1.87,0
9.906,-0.53,-1.87,0
9.926,-0.77,-1.75,0
9.946,-0.65,-1.75,0
9.966,-0.65,-1.63,0
9.986,-0.4,-1.63,0
10.006,-0.28,-1.63,0
10.026,-0.4,-1.5,0
10.046,-0.4,-1.38,0
10.066,-0.4,-1.38,0
10.086,-1.87,-2.85,0
10.106,-3.95,-4.8,0
10.126,-5.41,-7.49,0
10.146,-7.37,-9.32,0
10.146,-9.45,-10.06,0
10.167,-10.3,-10.54,0
10.187,-10.67,-10.79,0
10.207,-10.91,-11.03,0
10.226,-11.03,-11.03,0
10.246,-11.28,-11.16,0
10.267,-11.28,-11.16,0
10.287,-11.28,-11.28,0
10.307,-11.28,-11.28,0
10.326,-11.4,-11.28,0
10.347,-11.4,-11.28,0
10.367,-11.4,-11.28,0
10.386,-11.4,-11.28,0
10.407,-11.4,-11.4,0
10.427,-11.4,-11.4,1
10.447,-11.4,-11.4,1
10.467,-11.4,-11.4,1
10.487,-11.4,-11.4,1
10.506,-11.4,-11.4,1
10.527,-11.4,-11.4,1
10.547,-11.4,-11.4,1
10.547,-11.4,-11.4,1
10.567,-11.4,-11.4,1
10.587,-11.52,-11.4,1
10.607,-11.4,-11.4,1
10.628,-10.91,-10.91,1
10.647,-10.3,-9.93,1
10.667,-9.2,-8.22,1
10.687,-7.25,-6.88,1
10.707,-5.78,-5.66,1
10.728,-4.8,-5.17,1
10.747,-4.19,-4.68,1
10.767,-3.34,-4.07,1
10.787,-2.85,-3.7,1
10.807,-2.48,-3.34,1
10.828,-2.24,-2.97,1
10.847,-1.99,-2.85,1
10.867,-1.38,-2.72,0
10.887,-1.38,-2.36,0
10.907,-1.26,-2.36,0
10.927,-1.26,-2.11,0
10.947,-1.14,-1.99,0
10.947,-0.77,-1.99,0
10.967,-0.77,-1.87,0
10.987,-0.89,-1.75,0
11.008,-0.77,-1.87,0
11.028,-0.53,-1.75,0
11.048,-0.65,-1.63,0
11.067,-0.65,-1.63,0
11.088,-0.53,-1.5,0
11.108,-0.53,-1.5,0
11.127,-0.04,-1.5,0
11.148,-0.4,-1.5,0
11.168,-0.4,-1.38,0
11.188,-0.4,-1.26,0
11.208,-1.5,-2.48,0
11.228,-3.58,-4.44,0
11.248,-5.17,-6.88,0
11.268,-7.0,-9.08,0
11.288,-9.08,-10.06,0
11.307,-10.18,-10.54,0
11.328,-10.54,-10.79,0
11.347,-10.91,-11.03,0
11.347,-11.03,-11.16,0
11.368,-11.16,-11.16,0
11.389,-11.16,-11.28,0
11.407,-11.28,-11.28,0
11.428,-11.4,-11.28,0
11.448,-11.4,-11.28,0
11.468,-11.4,-11.28,0
11.488,-11.28,-11.4,0
11.508,-11.4,-11.4,0
11.528,-11.4,-11.4,0
11.547,-11.4,-11.28,0
11.568,-11.4,-11.4,1
11.588,-11.4,-11.4,1
11.608,-11.52,-11.4,1
11.628,-11.4,-11.4,1
11.648,-11.4,-11.4,1
11.668,-11.4,-11.4,1
11.688,-11.4,-11.4,1
11.708,-11.4,-11.4,1
11.728,-11.52,-11.4,1
11.748,-11.4,-11.4,1
11.748,-11.03,-11.03,1
11.768,-10.42,-10.18,1
11.788,-9.45,-8.47,1
11.808,-7.49,-6.88,1
11.828,-6.02,-5.9,1
11.848,-4.92,-5.17,1
11.868,-4.19,-4.56,1
11.888,-3.58,-4.07,1
11.908,-2.85,-3.7,1
11.928,-2.6,-3.34,1
11.948,-2.24,-3.09,1
11.968,-1.99,-2.85,1
11.988,-1.63,-2.72,0
12.008,-1.38,-2.6,0
12.028,-1.26,-2.36,0
12.048,-1.26,-2.24,0
12.068,-1.14,-2.11,0
12.088,-0.77,-1.99,0
12.108,-0.89,-1.99,0
12.128,-0.65,-1.99,0
12.148,-0.77,-1.87,0
12.148,-0.65,-1.63,0
12.168,-0.4,-1.63,0
12.188,-0.53,-1.63,0
12.208,-0.65,-1.5,0
12.228,-0.4,-1.5,0
12.248,-0.16,-1.63,0
12.268,-0.28,-1.5,0
12.288,-0.28,-1.38,0
12.308,-0.28,-1.38,0
12.328,-1.26,-2.36,0
12.348,-3.34,-4.07,0
12.368,-5.05,-6.02,0
12.388,-6.76,-8.59,0
12.408,-9.08,-9.81,0
12.428,-10.18,-10.3,0
12.448,-10.54,-10.67,0
12.468,-10.91,-10.91,0
12.488,-11.03,-11.03,0
12.508,-11.16,-11.16,0
12.528,-11.16,-11.16,0
12.548,-11.28,-11.28,0
12.568,-11.28,-11.28,0
12.588,-11.4,-11.28,0
12.608,-11.4,-11.28,0
12.629,-11.28,-11.28,0
12.648,-11.4,-11.28,0
12.668,-11.4,-11.4,0
12.688,-11.4,-11.28,0
12.708,-11.4,-11.28,1
12.728,-11.4,-11.4,1
12.749,-11.52,-11.4,1
12.769,-11.52,-11.4,1
12.788,-11.4,-11.4,1
12.808,-11.4,-11.4,1
12.828,-11.52,-11.4,1
12.848,-11.4,-11.4,1
12.869,-11.4,-11.4,1
12.888,-11.4,-11.4,1
12.909,-11.16,-11.03,1
12.928,-10.54,-10.42,1
12.949,-9.57,-9.69,1
12.969,-7.86,-8.71,1
12.989,-6.02,-7.25,1
13.009,-5.05,-6.15,1
13.029,-4.31,-5.29,1
13.049,-3.7,-4.8,1
13.069,-2.97,-4.31,1
13.089,-2.72,-3.82,1
13.109,-2.36,-3.46,1
13.129,-2.11,-3.21,1
13.149,-1.75,-2.97,1
13.169,-1.26,-2.72,0
13.189,-1.26,-2.6,0
13.209,-1.26,-2.48,0
13.23,-1.26,-2.24,0
13.249,-1.01,-2.11,0
13.269,-0.77,-1.99,0
13.289,-0.65,-1.87,0
13.309,-0.77,-1.99,0
13.329,-0.89,-1.87,0
13.349,-0.4,-1.75,0
13.349,-0.65,-1.75,0
13.37,-0.77,-1.63,0
13.389,-0.53,-1.63,0
13.409,-0.4,-1.63,0
13.43,-0.16,-1.63,0
13.45,-0.4,-1.5,0
13.47,-0.4,-1.5,0
13.49,-1.14,-1.99,0
13.509,-3.21,-3.95,0
13.529,-4.92,-6.15,0
13.55,-6.39,-8.71,0
13.569,-8.83,-9.81,0
13.589,-10.06,-10.42,0
13.61,-10.54,-10.67,0
13.63,-10.79,-10.91,0
13.65,-11.03,-11.16,0
13.67,-11.16,-11.16,0
13.689,-11.16,-11.28,0
13.709,-11.28,-11.16,0
13.729,-11.4,-11.28,0
13.75,-11.4,-11.28,0
13.75,-11.4,-11.28,0
13.77,-11.28,-11.4,0
13.791,-11.28,-11.28,0
13.81,-11.4,-11.28,0
13.83,-11.4,-11.28,1
13.85,-11.4,-11.4,1
13.871,-11.4,-11.4,1
13.89,-11.52,-11.4,1
13.91,-11.4,-11.4,1
13.93,-11.4,-11.4,1
13.95,-11.4,-11.4,1
13.97,-11.4,-11.4,1
13.991,-11.4,-11.4,1
14.01,-11.4,-11.4,1
14.03,-11.52,-11.4,1
14.051,-11.16,-11.16,1
14.07,-10.67,-10.54,1
14.09,-9.81,-8.96,1
14.11,-8.35,-7.37,1
14.131,-6.39,-6.27,1
14.15,-5.29,-5.54,1
14.15,-4.56,-4.8,1
14.171,-3.95,-4.31,1
14.191,-3.21,-4.07,1
14.21,-2.72,-3.58,1
14.231,-2.48,-3.21,1
14.25,-1.99,-3.09,1
14.27,-1.87,-2.85,1
14.291,-1.5,-2.6,0
14.311,-1.26,-2.6,0
14.33,-1.26,-2.36,0
14.35,-1.26,-2.11,0
14.371,-1.14,-1.99,0
14.391,-0.65,-1.99,0
14.41,-0.89,-1.87,0
14.43,-0.65,-1.87,0
14.45,-0.89,-1.99,0
14.471,-0.65,-1.75,0
14.491,-0.4,-1.63,0
14.511,-0.53,-1.63,0
14.531,-0.65,-1.5,0
14.55,-0.4,-1.63,0
14.57,-0.16,-1.5,0
14.59,-0.28,-1.5,0
14.61,-0.28,-1.38,0
14.631,-0.65,-1.75,0
14.651,-2.72,-3.46,0
14.67,-4.68,-5.17,0
14.691,-6.02,-7.86,0
14.71,-8.47,-9.57,0
14.731,-9.81,-10.18,0
14.752,-10.42,-10.67,0
14.771,-10.79,-10.91,0
14.79,-10.91,-11.03,0
14.81,-11.16,-11.16,0
14.831,-11.16,-11.16,0
14.851,-11.28,-11.28,0
14.871,-11.28,-11.16,0
14.891,-11.28,-11.28,0
14.911,-11.28,-11.28,0
14.931,-11.4,-11.4,0
14.951,-11.28,-11.28,0
14.951,-11.4,-11.28,0
14.971,-11.4,-11.4,1
14.991,-11.4,-11.4,1
15.011,-11.4,-11.4,1
15.031,-11.4,-11.4,1
15.052,-11.52,-11.4,1
15.071,-11.4,-11.4,1
15.091,-11.4,-11.4,1
15.111,-11.4,-11.4,1
15.131,-11.52,-11.4,1
15.151,-11.4,-11.4,1
15.171,-11.52,-11.4,1
15.191,-11.28,-11.28,1
15.211,-10.79,-10.67,1
15.231,-9.93,-9.81,1
15.251,-8.47,-8.22,1
15.271,-6.63,-6.88,1
15.291,-5.29,-5.78,1
15.311,-4.44,-5.05,1
15.331,-3.82,-4.56,1
15.351,-3.46,-4.19,1
15.351,-2.72,-3.82,1
15.372,-2.36,-3.46,1
15.391,-2.24,-3.09,1
15.411,-1.75,-2.85,1
15.431,-1.63,-2.72,1
15.452,-1.14,-2.48,0
15.471,-1.14,-2.48,0
15.491,-1.14,-2.24,0
15.511,-1.14,-2.11,0
15.531,-0.89,-1.99,0
15.551,-0.77,-1.87,0
15.571,-0.77,-1.75,0
15.591,-0.65,-1.87,0
15.611,-0.77,-1.87,0
15.632,-0.4,-1.63,0
15.651,-0.65,-1.63,0
15.672,-0.53,-1.63,0
15.692,-0.53,-1.5,0
15.711,-0.53,-1.63,0
15.731,-0.16,-1.63,0
15.752,-0.28,-1.38,0
15.752,-0.53,-1.5,0
15.773,-2.36,-3.34,0
15.792,-4.31,-5.17,0
15.812,-5.78,-7.86,0
15.833,-8.1,-9.45,0
15.853,-9.69,-10.18,0
15.872,-10.3,-10.67,0
15.892,-10.79,-10.91,0
15.912,-11.03,-11.03,0
15.932,-11.16,-11.16,0
15.953,-11.16,-11.16,0
15.973,-11.28,-11.28,0
15.992,-11.28,-11.28,0
16.012,-11.4,-11.28,0
16.032,-11.4,-11.28,0
16.052,-11.28,-11.28,0
16.072,-11.4,-11.28,0
16.092,-11.4,-11.28,0
16.112,-11.4,-11.4,1
16.132,-11.4,-11.4,1
16.152,-11.4,-11.4,1
16.152,-11.52,-11.4,1
16.172,-11.4,-11.4,1
16.193,-11.4,-11.4,1
16.213,-11.4,-11.4,1
16.233,-11.4,-11.4,1
16.253,-11.4,-11.4,1
16.273,-11.4,-11.4,1
16.293,-11.52,-11.4,1
16.313,-11.4,-11.28,1
16.333,-10.91,-10.79,1
16.352,-10.18,-9.81,1
16.373,-9.08,-8.22,1
16.392,-7.25,-6.88,1
16.412,-5.66,-5.9,1
16.432,-4.68,-5.17,1
16.452,-4.07,-4.56,1
16.473,-3.58,-4.19,1
16.493,-3.09,-3.82,1
16.513,-2.48,-3.46,1
16.533,-2.11,-3.21,1
16.553,-1.87,-2.85,1
16.573,-1.87,-2.72,1
16.593,-1.38,-2.6,0
16.613,-1.26,-2.48,0
16.634,-1.26,-2.24,0
16.654,-1.14,-2.11,0
16.673,-1.14,-1.99,0
16.693,-0.77,-1.87,0
16.713,-0.77,-1.87,0
16.733,-0.77,-1.87,0
16.754,-0.77,-1.75,0
16.774,-0.77,-1.75,0
16.793,-0.53,-1.63,0
16.814,-0.53,-1.63,0
16.834,-0.65,-1.5,0
16.854,-0.4,-1.63,0
16.874,-0.28,-1.5,0
16.894,-0.4,-1.5,0
16.914,-0.4,-1.5,0
16.933,-1.99,-2.97,0
16.954,-4.07,-4.68,0
16.974,-5.54,-7.37,0
16.995,-7.61,-9.2,0
17.015,-9.57,-10.06,0
17.034,-10.18,-10.54,0
17.055,-10.67,-10.79,0
17.075,-11.03,-11.03,0
17.095,-11.03,-11.03,0
17.115,-11.03,-11.16,0
17.135,-11.16,-11.16,0
17.155,-11.28,-11.28,0
17.175,-11.4,-11.28,0
17.195,-11.28,-11.28,0
17.215,-11.28,-11.28,0
17.235,-11.4,-11.28,0
17.255,-11.4,-11.28,0
17.275,-11.4,-11.4,1
17.295,-11.4,-11.4,1
17.315,-11.4,-11.4,1
17.335,-11.4,-11.4,1
17.355,-11.4,-11.4,1
17.376,-11.4,-11.4,1
17.395,-11.4,-11.4,1
17.415,-11.4,-11.4,1
17.436,-11.52,-11.4,1
17.456,-11.52,-11.4,1
17.476,-11.52,-11.4,1
17.496,-11.4,-11.28,1
17.516,-10.91,-10.79,1
17.536,-10.3,-9.81,1
17.556,-9.2,-8.22,1
17.576,-7.25,-6.88,1
17.596,-5.78,-5.9,1
17.616,-4.68,-5.17,1
17.636,-4.07,-4.56,1
17.656,-3.46,-4.19,1
17.676,-3.09,-3.82,1
17.696,-2.6,-3.46,1
17.716,-2.11,-3.21,1
17.736,-1.99,-2.85,1
17.756,-1.63,-2.6,1
17.777,-1.5,-2.6,0
17.797,-1.14,-2.48,0
17.817,-1.26,-2.24,0
17.837,-1.14,-2.24,0
17.856,-1.14,-1.99,0
17.877,-0.89,-1.87,0
17.897,-0.77,-1.87,0
17.917,-0.77,-1.75,0
17.937,-0.77,-1.87,0
17.957,-0.77,-1.75,0
17.977,-0.53,-1.63,0
17.997,-0.65,-1.5,0
18.016,-0.53,-1.63,0
18.037,-0.4,-1.63,0
18.057,-0.4,-1.38,0
18.077,-0.04,-1.63,0
18.097,-0.28,-1.5,0
18.117,-1.63,-2.6,0
18.136,-3.7,-4.44,0
18.157,-5.29,-7.12,0
18.177,-7.25,-9.2,0
18.197,-9.2,-10.06,0
18.217,-10.3,-10.54,0
18.237,-10.54,-10.79,0
18.257,-10.91,-10.91,0
18.277,-11.03,-11.03,0
18.297,-11.03,-11.16,0
18.317,-11.16,-11.16,0
18.337,-11.4,-11.28,0
18.357,-11.4,-11.28,0
18.377,-11.4,-11.28,0
18.398,-11.4,-11.28,0
18.418,-11.4,-11.4,0
18.437,-11.4,-11.28,0
18.457,-11.4,-11.4,1
18.478,-11.4,-11.4,1
18.497,-11.4,-11.4,1
18.518,-11.4,-11.4,1
18.537,-11.4,-11.4,1
18.557,-11.4,-11.4,1
18.578,-11.4,-11.4,1
18.598,-11.52,-11.4,1
18.618,-11.4,-11.4,1
18.638,-11.52,-11.4,1
18.658,-11.4,-11.4,1
18.678,-11.4,-11.4,1
18.698,-11.03,-10.91,1
18.718,-10.42,-10.18,1
18.738,-9.32,-8.35,1
18.758,-7.37,-7.0,1
18.778,-6.02,-5.9,1
18.798,-4.8,-5.29,1
18.818,-4.07,-4.68,1
18.838,-3.58,-4.19,1
18.858,-3.21,-3.82,1
18.878,-2.72,-3.58,1
18.898,-2.11,-3.09,1
18.918,-1.99,-2.85,1
18.938,-1.5,-2.72,1
18.958,-1.5,-2.48,0
18.958,-1.14,-2.36,0
18.979,-1.01,-2.36,0
18.999,-1.01,-2.24,0
19.019,-1.01,-1.99,0
19.039,-0.89,-1.99,0
19.059,-0.65,-1.87,0
19.079,-0.65,-1.75,0
19.099,-0.65,-1.87,0
19.119,-0.77,-1.75,0
19.138,-0.65,-1.63,0
19.158,-0.53,-1.63,0
19.179,-0.53,-1.5,0
19.198,-0.4,-1.38,0
19.219,-0.28,-1.5,0
19.24,-0.16,-1.63,0
19.258,-0.4,-1.38,0
19.279,-1.5,-2.48,0
19.299,-3.58,-4.19,0
19.319,-5.29,-6.15,0
19.339,-7.0,-8.71,0
19.359,-9.2,-9.81,0
19.381,-10.18,-10.42,0
19.399,-10.67,-10.67,0
19.42,-10.91,-10.91,0
19.44,-11.03,-11.03,0
19.46,-11.03,-11.16,0
19.48,-11.28,-11.16,0
19.5,-11.28,-11.16,0
19.52,-11.4,-11.28,0
19.54,-11.4,-11.28,0
19.559,-11.4,-11.28,0
19.579,-11.4,-11.4,0
19.6,-11.4,-11.4,0
19.619,-11.4,-11.4,1
19.64,-11.4,-11.4,1
19.66,-11.4,-11.4,1
19.68,-11.52,-11.4,1
19.699,-11.4,-11.4,1
19.72,-11.4,-11.4,1
19.74,-11.4,-11.4,1
19.76,-11.52,-11.4,1
19.76,-11.4,-11.4,1
19.78,-11.4,-11.4,1
19.801,-11.4,-11.4,1
19.821,-11.4,-11.52,1
19.841,-11.16,-11.03,1
19.86,-10.42,-10.3,1
19.881,-9.57,-8.96,1
19.901,-7.61,-7.25,1
19.921,-6.15,-6.27,1
19.941,-5.05,-5.41,1
19.961,-4.19,-4.68,1
19.981,-3.7,-4.44,1
20.001,-3.09,-3.95,1
20.021,-2.85,-3.58,1
20.041,-2.11,-3.21,1
20.061,-1.99,-2.97,1
20.081,-1.75,-2.72,1
20.101,-1.5,-2.6,1
20.12,-1.38,-2.48,0
20.141,-1.14,-2.36,0
20.16,-1.14,-2.24,0
20.16,-1.01,-2.11,0
20.181,-1.14,-1.87,0
20.201,-0.65,-1.87,0
20.221,-0.65,-1.99,0
20.241,-0.77,-1.87,0
20.261,-0.65,-1.75,0
20.281,-0.77,-1.75,0
20.301,-0.53,-1.63,0
20.321,-0.53,-1.63,0
20.341,-0.4,-1.5,0
20.361,-0.4,-1.5,0
20.381,-0.4,-1.5,0
20.401,-0.28,-1.5,0
20.421,-1.26,-2.24,0
20.441,-3.34,-4.07,0
20.461,-4.92,-6.27,0
20.481,-6.02,-8.71,0
20.501,-7.25,-9.81,0
20.521,-9.08,-10.42,0
20.541,-10.3,-10.67,0
20.561,-10.54,-10.91,0
20.561,-10.91,-11.03,0
20.582,-11.03,-11.16,0
20.602,-11.03,-11.16,0
20.622,-11.16,-11.28,0
20.641,-11.4,-11.28,0
20.661,-11.4,-11.28,0
20.682,-11.28,-11.28,0
20.702,-11.4,-11.4,0
20.722,-11.4,-11.4,0
20.742,-11.4,-11.4,1
20.762,-11.4,-11.4,1
20.782,-11.4,-11.4,1
20.802,-11.4,-11.4,1
20.821,-11.4,-11.4,1
20.842,-11.4,-11.4,1
20.861,-11.4,-11.4,1
20.882,-11.4,-11.4,1
20.902,-11.4,-11.4,1
20.922,-11.4,-11.4,1
20.942,-11.52,-11.4,1
20.962,-11.52,-11.4,1
20.983,-11.28,-11.16,1
21.002,-10.67,-10.42,1
21.023,-9.81,-9.08,1
21.042,-8.1,-7.37,1
21.063,-6.63,-6.27,1
21.082,-5.17,-5.54,1
21.103,-4.31,-4.8,1
21.123,-3.7,-4.31,1
21.143,-3.21,-4.07,1
21.162,-2.85,-3.58,1
21.183,-2.36,-3.21,1
21.202,-1.87,-2.97,1
21.222,-1.5,-2.85,1
21.243,-1.63,-2.6,1
21.262,-1.26,-2.48,0
21.282,-1.14,-2.48,0
21.303,-1.26,-2.24,0
21.323,-0.89,-2.11,0
21.343,-1.01,-1.99,0
21.363,-0.77,-1.75,0
21.384,-0.77,-1.87,0
21.403,-0.65,-1.87,0
21.423,-0.77,-1.75,0
21.444,-0.77,-1.63,0
21.463,-0.53,-1.63,0
21.484,-0.53,-1.5,0
21.503,-0.16,-1.5,0
21.524,-0.4,-1.5,0
21.543,-0.16,-1.5,0
21.563,-0.28,-1.38,0
21.584,-0.89,-1.75,0
21.603,-2.97,-3.58,0
21.624,-4.8,-5.29,0
21.643,-6.02,-7.98,0
21.664,-8.35,-9.57,0
21.684,-9.81,-10.3,0
21.704,-10.54,-10.67,0
21.724,-10.91,-10.91,0
21.744,-11.03,-11.03,0
21.763,-11.03,-11.03,0
21.784,-11.16,-11.16,0
21.803,-11.28,-11.28,0
21.824,-11.4,-11.28,0
21.845,-11.28,-11.28,0
21.864,-11.4,-11.28,0
21.884,-11.28,-11.28,0
21.904,-11.4,-11.28,0
21.924,-11.4,-11.28,0
21.943,-11.4,-11.4,1
21.963,-11.4,-11.4,1
21.984,-11.4,-11.4,1
22.004,-11.4,-11.4,1
22.024,-11.4,-11.4,1
22.044,-11.52,-11.4,1
22.064,-11.4,-11.4,1
22.084,-11.4,-11.4,1
22.104,-11.4,-11.4,1
22.124,-11.52,-11.4,1
22.144,-11.52,-11.4,1
22.165,-11.28,-11.16,1
22.185,-10.79,-10.67,1
22.205,-9.93,-9.32,1
22.225,-8.47,-7.61,1
22.245,-6.76,-6.51,1
22.265,-5.41,-5.54,1
22.285,-4.56,-4.8,1
22.305,-3.95,-4.44,1
22.326,-3.09,-4.07,1
22.345,-2.97,-3.58,1
22.365,-2.48,-3.34,1
22.385,-1.99,-2.97,1
22.406,-1.75,-2.72,1
22.425,-1.38,-2.6,1
22.445,-1.5,-2.6,0
22.465,-1.26,-2.36,0
22.485,-1.01,-2.24,0
22.505,-1.01,-2.11,0
22.526,-1.01,-1.99,0
22.545,-0.89,-1.87,0
22.565,-0.65,-1.87,0
22.586,-0.77,-1.87,0
22.606,-0.53,-1.75,0
22.625,-0.77,-1.75,0
22.646,-0.77,-1.75,0
22.665,-0.53,-1.63,0
22.686,-0.4,-1.63,0
22.706,-0.28,-1.63,0
22.726,-0.4,-1.5,0
22.746,-0.4,-1.5,0
22.766,-0.65,-1.63,0
22.786,-2.6,-3.21,0
22.806,-4.56,-4.8,0
22.826,-5.9,-6.76,0
22.845,-8.1,-8.96,0
22.866,-9.69,-10.06,0
22.885,-10.42,-10.54,0
22.906,-10.79,-10.79,0
22.926,-11.03,-10.91,0
22.945,-11.03,-11.03,0
22.969,-11.16,-11.16,0
22.989,-11.28,-11.16,0
23.01,-11.28,-11.28,0
23.029,-11.28,-11.28,0
23.05,-11.4,-11.28,0
23.07,-11.4,-11.28,0
23.09,-11.4,-11.28,0
23.11,-11.4,-11.4,0
23.13,-11.4,-11.28,1
23.15,-11.4,-11.28,1
23.169,-11.52,-11.4,1
23.19,-11.4,-11.4,1
23.21,-11.4,-11.4,1
23.229,-11.4,-11.4,1
23.25,-11.4,-11.4,1
23.269,-11.4,-11.4,1
23.29,-11.4,-11.4,1
23.309,-11.52,-11.4,1
23.33,-11.4,-11.4,1
23.349,-11.4,-11.28,1
23.37,-10.79,-10.67,1
23.37,-10.06,-9.57,1
23.39,-8.71,-7.86,1
23.41,-6.76,-6.63,1
23.43,-5.66,-5.66,1
23.45,-4.68,-5.05,1
23.47,-3.95,-4.56,1
23.49,-3.34,-4.07,1
23.51,-2.85,-3.58,1
23.53,-2.6,-3.34,1
23.55,-2.11,-3.09,1
23.57,-1.75,-2.85,1
23.59,-1.38,-2.72,0
23.611,-1.63,-2.48,0
23.631,-1.38,-2.48,0
23.65,-1.14,-2.24,0
23.671,-1.26,-1.99,0
23.69,-0.77,-1.99,0
23.71,-1.14,-1.99,0
23.73,-1.01,-1.75,0
23.75,-0.77,-1.87,0
23.77,-0.65,-1.75,0
23.77,-0.77,-1.63,0
23.791,-0.89,-1.63,0
23.81,-0.53,-1.63,0
23.83,-0.65,-1.5,0
23.85,-0.04,-1.63,0
23.871,-0.4,-1.5,0
23.891,-0.53,-1.38,0
23.91,-0.4,-1.38,0
23.93,-2.24,-3.09,0
23.95,-4.19,-4.8,0
23.97,-5.66,-7.61,0
23.99,-6.39,-9.45,0
24.01,-7.37,-10.18,0
24.03,-9.32,-10.67,0
24.05,-10.3,-10.91,0
24.07,-10.67,-11.03,0
24.09,-10.91,-11.16,0
24.11,-11.03,-11.16,0
24.131,-11.16,-11.28,0
24.15,-11.28,-11.28,0
24.17,-11.4,-11.28,0
24.17,-11.28,-11.28,0
24.19,-11.28,-11.28,0
24.211,-11.28,-11.4,0
24.23,-11.28,-11.4,0
24.25,-11.4,-11.4,0
24.27,-11.4,-11.4,1
24.29,-11.52,-11.4,1
24.311,-11.4,-11.4,1
24.33,-11.4,-11.4,1
24.351,-11.4,-11.4,1
24.37,-11.4,-11.4,1
24.391,-11.4,-11.4,1
24.41,-11.4,-11.4,1
24.43,-11.4,-11.4,1
24.451,-11.4,-11.4,1
24.471,-11.4,-11.28,1
24.491,-11.03,-10.91,1
24.511,-10.3,-9.81,1
24.531,-9.45,-8.22,1
24.551,-7.61,-6.76,1
24.571,-6.27,-5.78,1
24.592,-5.05,-5.17,1
24.612,-4.19,-4.56,1
24.632,-3.46,-4.07,1
24.652,-3.09,-3.7,1
24.672,-2.72,-3.34,1
24.692,-2.24,-3.09,1
24.712,-1.87,-2.97,1
24.732,-1.38,-2.6,0
24.751,-1.63,-2.6,0
24.772,-1.5,-2.48,0
24.791,-1.14,-2.24,0
24.812,-0.89,-2.11,0
24.832,-0.89,-1.99,0
24.851,-0.89,-1.87,0
24.872,-0.65,-1.87,0
24.892,-0.77,-1.99,0
24.911,-0.53,-1.75,0
24.931,-0.77,-1.75,0
24.951,-0.89,-1.63,0
24.971,-0.53,-1.5,0
24.971,-0.28,-1.63,0
24.992,-0.04,-1.5,0
25.012,-0.28,-1.5,0
25.032,-0.53,-1.5,0
25.052,-0.65,-1.5,0
25.072,-1.75,-2.6,0
25.092,-3.82,-4.31,0
25.112,-5.41,-6.63,0
25.132,-7.0,-8.83,0
25.152,-8.96,-9.93,0
25.172,-10.3,-10.42,0
25.192,-10.67,-10.79,0
25.212,-10.91,-10.91,0
25.232,-11.16,-11.03,0
25.252,-11.16,-11.16,0
25.271,-11.28,-11.16,0
25.292,-11.28,-11.28,0
25.312,-11.4,-11.28,0
25.332,-11.4,-11.28,0
25.352,-11.4,-11.4,0
25.373,-11.4,-11.28,0
25.393,-11.4,-11.28,0
25.413,-11.4,-11.28,0
25.442,-11.4,-11.4,1
25.453,-11.4,-11.4,1
25.473,-11.52,-11.4,1
25.493,-11.4,-11.4,1
25.513,-11.52,-11.4,1
25.533,-11.4,-11.4,1
25.553,-11.4,-11.4,1
25.573,-11.52,-11.4,1
25.593,-11.52,-11.4,1
25.613,-11.4,-11.4,1
25.633,-11.4,-11.4,1
25.653,-11.03,-11.03,1
25.673,-10.3,-10.42,1
25.693,-9.32,-9.45,1
25.713,-7.37,-7.86,1
25.733,-5.9,-6.51,1
25.753,-5.05,-5.66,1
25.773,-4.19,-4.92,1
25.773,-3.34,-4.44,1
25.794,-2.85,-4.07,1
25.814,-2.72,-3.58,1
25.833,-2.24,-3.34,1
25.853,-1.87,-2.97,1
25.873,-1.5,-2.72,1
25.894,-1.38,-2.6,0
25.913,-1.5,-2.48,0
25.933,-1.14,-2.36,0
25.953,-1.01,-2.24,0
25.973,-0.77,-2.11,0
25.993,-1.01,-1.99,0
26.013,-1.01,-1.99,0
26.034,-0.77,-1.87,0
26.053,-0.65,-1.75,0
26.073,-0.53,-1.75,0
26.093,-0.89,-1.75,0
26.113,-0.65,-1.63,0
26.134,-0.4,-1.63,0
26.154,-0.04,-1.5,0
26.173,-0.28,-1.5,0
26.194,-0.53,-1.63,0
26.213,-0.65,-1.5,0
26.233,-1.63,-2.48,0
26.254,-3.7,-4.31,0
26.273,-5.29,-6.76,0
26.294,-6.76,-8.96,0
26.313,-8.83,-9.93,0
26.333,-10.3,-10.42,0
26.354,-10.67,-10.79,0
26.373,-10.91,-11.03,0
26.394,-11.03,-11.03,0
26.414,-11.16,-11.16,0
26.433,-11.28,-11.16,0
26.454,-11.28,-11.16,0
26.473,-11.4,-11.28,0
26.494,-11.4,-11.28,0
26.513,-11.4,-11.4,0
26.534,-11.4,-11.4,0
26.554,-11.28,-11.28,0
26.574,-11.4,-11.4,1
26.594,-11.4,-11.4,1
26.615,-11.4,-11.4,1
26.634,-11.4,-11.4,1
26.654,-11.4,-11.4,1
26.674,-11.4,-11.4,1
26.694,-11.4,-11.4,1
26.715,-11.4,-11.4,1
26.735,-11.4,-11.4,1
26.754,-11.4,-11.4,1
26.774,-11.4,-11.4,1
26.794,-11.52,-11.4,1
26.814,-11.16,-11.03,1
26.834,-10.42,-10.3,1
26.854,-9.45,-8.71,1
26.875,-7.61,-7.25,1
26.894,-5.9,-6.15,1
26.915,-5.29,-5.41,1
26.935,-4.19,-4.68,1
26.955,-3.58,-4.19,1
26.975,-2.85,-3.95,1
26.996,-2.72,-3.58,1
27.015,-2.6,-3.21,1
27.036,-1.87,-2.97,1
27.056,-1.5,-2.72,1
27.076,-1.38,-2.6,0
27.096,-1.5,-2.48,0
27.116,-1.38,-2.36,0
27.136,-1.14,-2.11,0
27.155,-0.89,-2.11,0
27.175,-0.77,-1.99,0
27.196,-1.14,-1.87,0
27.216,-0.77,-1.87,0
27.236,-0.77,-1.87,0
27.256,-0.53,-1.75,0
27.276,-0.77,-1.75,0
27.296,-1.01,-1.75,0
27.316,-0.4,-1.63,0
27.336,-0.28,-1.63,0
27.356,-0.16,-1.63,0
27.375,-0.53,-1.63,0
27.375,-0.65,-1.5,0
27.396,-1.26,-2.11,0
27.416,-3.34,-3.95,0
27.436,-5.05,-5.41,0
27.456,-6.39,-7.86,0
27.476,-8.59,-9.57,0
27.496,,,
27.516,-10.06,-10.18,0
27.535,-10.54,-10.67,0
27.556,-10.91,-10.91,0
27.576,-11.03,-11.03,0
27.595,-11.16,-11.03,0
27.619,-11.28,-11.16,0
27.643,-11.28,-11.16,0
27.664,,,
27.675,-11.28,-11.28,0
27.696,-11.4,-11.28,0
27.716,-11.4,-11.28,0
27.738,-11.28,-11.28,0
27.762,-11.4,-11.28,0
27.787,-11.4,-11.4,0
27.811,-11.4,-11.4,1
27.832,,,
27.848,-11.4,-11.4,1
27.868,-11.4,-11.4,1
27.888,-11.4,-11.4,1
27.908,-11.4,-11.4,1
27.93,-11.4,-11.4,1
27.955,-11.4,-11.4,1
27.976,,,
27.987,-11.4,-11.4,1
28.007,-11.4,-11.4,1
28.027,-11.52,-11.4,1
28.049,-11.4,-11.4,1
28.074,-11.16,-11.16,1
28.098,-10.54,-10.42,1
28.123,-9.69,-8.96,1
28.143,-7.98,-7.37,1
28.164,-6.15,-6.27,1
28.189,-5.17,-5.29,1
28.209,-4.31,-4.68,1
28.229,-3.82,-4.44,1
28.254,-3.09,-3.95,1
28.274,-2.6,-3.58,1
28.295,,,
28.309,-2.48,-3.34,1
28.33,-1.99,-2.97,1
28.349,-1.75,-2.72,1
28.369,-1.26,-2.72,0
28.389,-1.5,-2.6,0
28.409,-1.5,-2.36,0
28.429,,,
28.45,-1.14,-2.24,0
28.469,-0.89,-2.11,0
28.489,-0.89,-1.87,0
28.51,-0.77,-1.99,0
28.529,-0.89,-1.99,0
28.55,-0.77,-1.87,0
28.569,-0.53,-1.75,0
28.59,-0.65,-1.75,0
28.61,-0.89,-1.63,0
28.63,-0.4,-1.63,0
28.65,-0.4,-1.63,0
28.671,-0.16,-1.63,0
28.69,,,
28.71,-0.16,-1.5,0
28.73,-0.65,-1.5,0
28.75,-1.01,-1.87,0
28.77,-3.09,-3.7,0
28.79,-4.8,-5.66,0
28.81,-6.15,-8.47,0
28.83,-8.35,-9.69,0
28.85,-10.06,-10.42,0
28.87,-10.54,-10.79,0
28.89,,,
28.91,-10.91,-10.91,0
28.93,-10.91,-11.03,0
28.95,-11.16,-11.16,0
28.971,-11.16,-11.28,0
28.99,-11.28,-11.28,0
29.012,-11.4,-11.28,0
29.036,-11.4,-11.28,0
29.057,,,
29.073,-11.4,-11.28,0
29.093,-11.4,-11.28,0
29.112,-11.4,-11.4,0
29.133,-11.4,-11.28,0
29.155,-11.4,-11.28,1
29.179,-11.4,-11.4,1
29.2,,,
29.213,-11.4,-11.4,1
29.233,-11.4,-11.4,1
29.253,-11.4,-11.4,1
29.274,-11.4,-11.4,1
29.299,-11.4,-11.4,1
29.322,-11.4,-11.4,1
29.348,-11.52,-11.4,1
29.368,,,
29.373,-11.4,-11.4,1
29.393,,,
29.412,-11.4,-11.4,1
29.418,-11.28,-11.16,1
29.442,-10.67,-10.54,1
29.466,-9.81,-9.2,1
29.486,-8.47,-7.61,1
29.506,,,
29.519,-6.51,-6.39,1
29.538,-5.29,-5.41,1
29.558,-4.56,-4.92,1
29.579,-3.82,-4.44,1
29.598,-3.34,-4.07,1
29.618,-2.72,-3.58,1
29.642,-2.48,-3.34,1
29.663,-2.11,-3.09,1
29.683,-1.75,-2.85,1
29.707,-1.38,-2.72,0
29.729,-1.5,-2.6,0
29.749,-1.5,-2.36,0
29.774,-1.14,-2.24,0
29.794,-1.14,-2.11,0
29.814,,,
29.818,,,
29.818,,,
29.838,-0.89,-1.99,0
29.858,-0.89,-1.99,0
29.878,-1.01,-1.99,0
29.899,-0.77,-1.87,0
29.918,-0.65,-1.87,0
29.938,-0.65,-1.87,0
29.958,-0.89,-1.63,0
29.978,-0.65,-1.63,0
29.998,-0.53,-1.63,0
30.018,-0.28,-1.5,0
30.039,-0.16,-1.5,0
30.058,-0.65,-1.5,0
30.079,,,
30.098,-0.89,-1.63,0
30.118,-2.72,-3.46,0
30.139,-4.68,-5.29,0
30.159,-5.9,-8.1,0
30.178,-7.0,-9.57,0
30.199,-9.32,-10.3,0
30.219,-10.3,-10.67,0
30.232,,,
30.252,-10.67,-10.79,0
30.272,-10.91,-11.03,0
30.292,-11.03,-11.16,0
30.312,-11.16,-11.16,0
30.332,-11.16,-11.16,0
30.354,-11.4,-11.28,0
30.38,-11.28,-11.28,0
30.4,,,
30.413,-11.4,-11.28,0
30.432,-11.4,-11.4,0
30.452,-11.4,-11.28,0
30.473,-11.4,-11.28,0
30.498,-11.4,-11.28,1
30.523,-11.4,-11.4,1
30.548,-11.4,-11.4,1
30.568,,,
30.572,,,
30.592,-11.4,-11.4,1
30.612,-11.4,-11.4,1
30.632,-11.4,-11.4,1
30.642,-11.4,-11.4,1
30.666,-11.4,-11.4,1
30.691,-11.4,-11.4,1
30.712,,,
30.722,-11.4,-11.4,1
30.742,-11.4,-11.4,1
30.762,-11.4,-11.28,1
30.785,-10.79,-10.67,1
30.81,-10.06,-9.57,1
30.83,,,
30.842,-8.59,-7.86,1
30.862,-6.76,-6.51,1
30.883,-5.54,-5.66,1
30.902,-4.68,-4.92,1
30.922,-3.95,-4.44,1
30.942,-3.46,-4.07,1
30.962,,,
30.983,-2.72,-3.7,1
31.002,-2.6,-3.34,1
31.023,-2.11,-3.09,1
31.042,-1.75,-2.97,1
31.052,-1.5,-2.72,0
31.072,-1.5,-2.6,0
31.096,-1.5,-2.48,0
31.117,-1.14,-2.24,0
31.138,-1.26,-2.11,0
31.162,-0.77,-1.99,0
31.182,-1.01,-1.99,0
31.202,-1.14,-1.87,0
31.227,-0.77,-1.99,0
31.248,-0.77,-1.87,0
31.269,-0.77,-1.75,0
31.293,-0.77,-1.75,0
31.313,-0.65,-1.63,0
31.334,-0.53,-1.63,0
31.359,-0.16,-1.63,0
31.379,-0.53,-1.75,0
31.4,,,
31.4,,,
31.412,-0.65,-1.5,0
31.433,-0.65,-1.5,0
31.452,-2.48,-3.21,0
31.465,,,
31.486,-4.44,-4.92,0
31.506,-5.78,-7.25,0
31.526,-7.49,-9.32,0
31.546,-9.69,-10.18,0
31.565,-10.42,-10.67,0
31.585,-10.79,-10.91,0
31.605,-11.03,-11.03,0
31.625,,,
31.645,-11.16,-11.16,0
31.665,-11.16,-11.16,0
31.685,-11.16,-11.16,0
31.705,-11.28,-11.28,0
31.726,-11.4,-11.28,0
31.748,-11.4,-11.28,0
31.771,-11.4,-11.28,0
31.792,,,
31.806,-11.4,-11.4,0
31.826,-11.28,-11.4,0
31.846,-11.4,-11.4,0
31.867,-11.4,-11.4,1
31.891,-11.4,-11.28,1
31.916,-11.4,-11.4,1
31.936,,,
31.947,-11.4,-11.4,1
31.967,-11.4,-11.4,1
31.988,-11.4,-11.4,1
32.01,-11.4,-11.4,1
32.034,-11.4,-11.4,1
32.059,-11.52,-11.4,1
32.083,-11.4,-11.4,1
32.104,,,
32.108,,,
32.127,-11.4,-11.28,1
32.148,-10.91,-10.79,1
32.168,-10.18,-9.69,1
32.187,-8.96,-8.1,1
32.207,-7.0,-6.63,1
32.228,-5.66,-5.78,1
32.247,-4.68,-5.05,1
32.267,-4.07,-4.56,1
32.284,,,
32.304,-3.58,-4.19,1
32.325,-2.72,-3.82,1
32.345,-2.48,-3.34,1
32.364,-2.36,-3.09,1
32.384,-1.87,-2.97,1
32.405,-1.5,-2.72,0
32.424,-1.38,-2.6,0
32.444,-1.5,-2.48,0
32.464,-1.26,-2.36,0
32.484,,,
32.504,-1.14,-2.11,0
32.525,-0.77,-2.11,0
32.544,-0.89,-1.99,0
32.564,-1.01,-1.87,0
32.584,-0.77,-1.99,0
32.605,-0.89,-1.87,0
32.624,-0.65,-1.75,0
32.645,-0.77,-1.75,0
32.664,-0.77,-1.63,0
32.685,-0.53,-1.5,0
32.702,-0.28,-1.75,0
32.723,-0.16,-1.63,0
32.746,-0.53,-1.5,0
32.768,-0.65,-1.5,0
32.788,-1.99,-2.97,0
32.813,-3.95,-4.56,0
32.833,-5.54,-6.88,0
32.854,-6.88,-8.96,0
32.878,-9.2,-9.93,0
32.898,-10.3,-10.54,0
32.922,-10.67,-10.79,0
32.948,-10.91,-10.91,0
32.968,,,
32.968,,,
32.983,-11.03,-11.03,0
33.002,-11.16,-11.16,0
33.023,-11.16,-11.16,0
33.042,-11.28,-11.16,0
33.066,-11.28,-11.28,0
33.091,-11.4,-11.28,0
33.116,-11.4,-11.28,0
33.136,,,
33.156,-11.4,-11.4,0
33.177,-11.28,-11.28,0
33.196,-11.4,-11.28,0
33.217,-11.4,-11.4,1
33.236,-11.4,-11.4,1
33.259,-11.4,-11.4,1
33.28,,,
33.296,-11.4,-11.4,1
33.317,-11.4,-11.4,1
33.337,-11.4,-11.4,1
33.357,-11.4,-11.4,1
33.378,-11.4,-11.4,1
33.402,-11.4,-11.4,1
33.427,-11.4,-11.4,1
33.447,,,
33.456,-11.52,-11.4,1
33.476,-10.91,-10.91,1
33.497,-10.18,-9.93,1
33.521,-9.2,-8.35,1
33.542,-7.25,-6.88,1
33.562,,,
33.582,-5.9,-5.9,1
33.602,-4.92,-5.17,1
33.623,-4.07,-4.68,1
33.642,-3.58,-4.19,1
33.662,-2.85,-3.82,1
33.682,-2.48,-3.46,1
33.702,-2.36,-3.21,1
33.722,-1.75,-2.85,1
33.742,-1.63,-2.72,0
33.762,,,
33.781,-1.26,-2.72,0
33.801,-1.5,-2.48,0
33.822,-1.5,-2.24,0
33.842,-1.14,-2.24,0
33.862,-0.89,-2.11,0
33.882,-0.89,-1.99,0
33.902,-0.89,-1.99,0
33.922,-0.89,-1.99,0
33.942,-0.89,-1.75,0
33.962,-0.65,-1.87,0
33.982,-0.89,-1.75,0
34.002,-1.01,-1.63,0
34.025,-0.4,-1.63,0
34.045,-0.4,-1.75,0
34.066,-0.28,-1.63,0
34.091,-0.53,-1.5,0
34.111,-0.89,-1.5,0
34.132,-1.75,-2.6,0
34.156,-3.82,-4.44,0
34.176,-5.41,-6.63,0
34.196,,,
34.202,-6.76,-8.96,0
34.222,-9.2,-9.93,0
34.242,-10.3,-10.54,0
34.262,-10.67,-10.79,0
34.291,-10.91,-11.03,0
34.311,,,
34.322,-11.03,-11.16,0
34.337,,,
34.357,-11.16,-11.16,0
34.377,-11.16,-11.28,0
34.398,-11.28,-11.28,0
34.423,-11.4,-11.28,0
34.437,-11.4,-11.4,0
34.459,-11.4,-11.4,0
34.479,,,
34.498,-11.4,-11.4,0
34.517,-11.4,-11.4,0
34.538,-11.52,-11.4,0
34.557,-11.4,-11.4,1
34.578,-11.4,-11.4,1
34.602,-11.4,-11.4,1
34.627,-11.52,-11.4,1
34.648,,,
34.657,-11.52,-11.4,1
34.678,-11.52,-11.4,1
34.697,-11.4,-11.4,1
34.722,-11.52,-11.52,1
34.746,-11.52,-11.4,1
34.77,-11.52,-11.52,1
34.791,,,
34.806,-11.52,-11.4,1
34.827,-11.16,-11.16,1
34.847,-10.54,-10.42,1
34.866,-9.69,-8.83,1
34.886,,,
34.906,-7.86,-7.25,1
34.927,-6.15,-6.02,1
34.947,-5.17,-5.29,1
34.966,-4.56,-4.8,1
34.987,-3.7,-4.19,1
35.006,-2.97,-3.82,1
35.027,-2.48,-3.34,1
35.047,-2.24,-2.97,1
35.066,-1.99,-2.85,1
35.086,-1.5,-2.6,0
35.107,-1.14,-2.48,0
35.126,-1.01,-2.36,0
35.147,,,
35.167,-1.26,-1.99,0
35.188,-0.89,-1.87,0
35.207,-0.65,-1.87,0
35.227,-0.4,-1.75,0
35.247,-0.65,-1.63,0
35.268,-0.65,-1.63,0
35.287,-0.53,-1.5,0
35.307,-0.4,-1.38,0
35.327,-0.28,-1.5,0
35.347,,,
35.368,-0.53,-1.38,0
35.387,-0.65,-1.26,0
35.407,-0.04,-1.38,0
35.427,0.09,-1.38,0
35.447,0.09,-1.26,0
35.467,-0.4,-1.14,0
35.487,-1.01,-1.87,0
35.507,-3.09,-3.7,0
35.527,-4.92,-5.29,0
35.547,-6.27,-7.98,0
35.567,-8.71,-9.57,0
35.587,-10.06,-10.3,0
35.61,-10.54,-10.67,0
35.631,,,
35.647,-10.91,-10.91,0
35.667,-11.03,-11.03,0
35.687,-11.16,-11.16,0
35.708,-11.16,-11.28,0
35.729,-11.28,-11.28,0
35.753,-11.4,-11.28,0
35.774,,,
35.788,-11.4,-11.28,0
35.808,-11.4,-11.4,0
35.828,-11.4,-11.4,0
35.848,-11.4,-11.4,0
35.872,-11.4,-11.4,0
35.897,-11.4,-11.4,0
35.921,-11.4,-11.4,1
35.942,,,
35.947,-11.52,-11.4,1
35.966,,,
35.987,-11.52,-11.4,1
36.007,-11.52,-11.4,1
36.027,-11.4,-11.52,1
36.047,-11.4,-11.52,1
36.067,-11.52,-11.52,1
36.089,-11.52,-11.52,1
36.109,,,
36.127,-11.52,-11.52,1
36.147,-11.52,-11.4,1
36.167,-11.28,-11.16,1
36.187,-10.67,-10.54,1
36.208,-9.93,-9.2,1
36.229,-8.22,-7.49,1
36.249,,,
36.267,-6.51,-6.27,1
36.287,-5.17,-5.54,1
36.307,-4.56,-4.92,1
36.327,-3.95,-4.31,1
36.347,-3.21,-3.95,1
36.367,-2.6,-3.46,1
36.388,-2.24,-3.09,1
36.407,-2.11,-2.97,1
36.428,-1.75,-2.72,0
36.449,-1.38,-2.6,0
36.47,-1.14,-2.48,0
36.49,-1.26,-2.24,0
36.514,-1.38,-1.99,0
36.536,-0.89,-1.99,0
36.557,-0.65,-1.99,0
36.581,-0.65,-1.87,0
36.601,-0.89,-1.75,0
36.621,-0.77,-1.75,0
36.646,-0.65,-1.63,0
36.666,-0.4,-1.63,0
36.686,-0.53,-1.5,0
36.712,-0.77,-1.5,0
36.733,-0.28,-1.5,0
36.753,,,
36.753,,,
36.768,-0.16,-1.5,0
36.789,-0.16,-1.38,0
36.808,-0.4,-1.26,0
36.829,-1.01,-1.63,0
36.848,-2.85,-3.58,0
36.869,-4.68,-5.41,0
36.888,-6.02,-8.22,0
36.908,-8.35,-9.81,0
36.929,-9.93,-10.3,0
36.953,-10.54,-10.79,0
36.974,,,
36.989,-10.91,-10.91,0
37.008,-11.03,-11.16,0
37.028,-11.16,-11.16,0
37.049,-11.28,-11.16,0
37.072,-11.28,-11.28,0
37.096,-11.4,-11.28,0
37.121,-11.4,-11.4,0
37.142,,,
37.149,-11.28,-11.4,0
37.168,-11.16,-11.4,0
37.191,-11.03,-11.4,0
37.216,-11.03,-11.4,0
37.24,-10.79,-11.4,0
37.265,-10.79,-11.4,1
37.285,,,
37.292,-10.79,-11.4,1
37.312,,,
37.332,-10.79,-11.4,1
37.352,-10.67,-11.4,1
37.372,-10.67,-11.4,1
37.392,-10.67,-11.4,1
37.412,-10.79,-11.4,1
37.432,-10.67,-11.4,1
37.454,,,
37.475,-10.67,-11.52,1
37.493,-10.67,-11.4,1
37.511,-10.42,-11.28,1
37.532,-9.45,-10.79,1
37.552,-8.47,-9.57,1
37.573,-7.12,-7.86,1
37.593,-5.78,-6.51,1
37.614,-4.92,-5.66,1
37.636,-4.68,-5.05,1
37.657,-4.56,-4.44,1
37.675,-4.19,-3.95,1
37.703,-3.82,-3.58,1
37.716,,,
37.736,-3.7,-3.21,1
37.753,-3.82,-2.97,1
37.773,-3.82,-2.85,0
37.793,-3.58,-2.6,0
37.813,-3.46,-2.48,0
37.834,-3.58,-2.24,0
37.855,,,
37.873,-3.82,-1.99,0
37.893,-3.58,-1.99,0
37.913,-3.46,-1.87,0
37.933,-3.34,-1.75,0
37.953,-3.46,-1.87,0
37.973,-3.7,-1.75,0
37.993,-3.46,-1.63,0
38.01,-3.34,-1.63,0
38.036,-3.46,-1.63,0
38.051,,,
38.071,-3.7,-1.5,0
38.092,-3.58,-1.38,0
38.111,-3.34,-1.5,0
38.131,-3.21,-1.38,0
38.15,-3.46,-1.26,0
38.171,-3.95,-1.38,0
38.191,-5.41,-3.09,0
38.211,-6.88,-4.92,0
38.23,-7.49,-7.73,0
38.25,,,
38.271,-8.71,-9.57,0
38.291,-10.06,-10.3,0
38.31,-10.3,-10.67,0
38.331,-10.42,-10.91,0
38.351,-10.67,-11.03,0
38.373,-10.67,-11.16,0
38.391,-10.54,-11.16,0
38.416,-10.67,-11.28,0
38.44,-10.79,-11.28,0
38.459,-10.79,-11.28,0
38.482,,,
38.505,-10.67,-11.4,0
38.521,-10.67,-11.4,0
38.537,-10.67,-11.4,0
38.559,-10.67,-11.28,0
38.583,-10.67,-11.28,0
38.609,-10.67,-11.28,1
38.629,,,
38.637,-10.79,-11.16,1
38.657,,,
38.678,-10.79,-11.03,1
38.696,-10.79,-10.91,1
38.717,-10.54,-10.79,1
38.737,-10.67,-10.79,1
38.756,-10.67,-10.79,1
38.779,-10.67,-10.67,1
38.8,,,
38.82,-10.79,-10.67,1
38.844,-10.67,-10.67,1
38.861,-10.54,-10.42,1
38.887,-9.57,-9.57,1
38.904,-8.59,-8.83,1
38.921,-7.61,-7.73,1
38.941,-6.02,-6.51,1
38.961,-5.05,-5.9,1
38.981,-4.56,-5.41,1
39.001,-4.56,-5.17,1
39.021,,,
39.041,-4.44,-5.05,1
39.061,-3.95,-4.92,1
39.082,-3.7,-4.68,1
39.101,-3.58,-4.56,1
39.121,-3.7,-4.56,1
39.142,-3.58,-4.56,0
39.161,-3.46,-4.56,0
39.181,-3.46,-4.44,0
39.201,-3.7,-4.31,0
39.221,,,
39.221,,,
39.241,-3.7,-4.44,0
39.261,-3.46,-4.44,0
39.281,-3.34,-4.31,0
39.302,-3.46,-4.31,0
39.321,-3.82,-4.44,0
39.341,-3.7,-4.31,0
39.362,-3.58,-4.31,0
39.382,-3.46,-4.44,0
39.402,-3.58,-4.31,0
39.422,-3.7,-4.31,0
39.442,-3.46,-4.44,0
39.462,-3.34,-4.44,0
39.481,,,
39.501,-3.34,-4.31,0
39.522,-3.82,-4.31,0
39.542,-5.05,-5.41,0
39.562,-6.76,-6.88,0
39.583,-7.49,-8.83,0
39.603,-8.47,-9.81,0
39.622,-9.81,-10.18,0
39.643,-10.18,-10.3,0
39.662,-10.3,-10.42,0
39.685,-10.54,-10.42,0
39.71,-10.54,-10.54,0
39.733,-10.42,-10.42,0
39.755,,,
39.766,-10.42,-10.42,0
39.783,-10.67,-10.42,0
39.804,-10.67,-10.54,0
39.829,-10.54,-10.54,0
39.854,-10.54,-10.67,0
39.878,-10.67,-10.67,0
39.899,,,
39.903,-10.67,-10.54,0
39.923,,,
39.942,-10.67,-10.54,0
39.962,-10.67,-10.67,1
39.982,-10.67,-10.67,1
40.002,-10.79,-10.67,1
40.022,-10.67,-10.67,1
