Time (s),Pressure 1 (kPa),Pressure 2 (kPa),Switch State
0.116,-7.49,-7.86,1
0.137,-7.49,-7.86,1
0.156,-7.61,-7.86,1
0.177,-7.61,-7.86,1
0.197,-7.61,-7.86,1
0.216,-7.61,-7.86,1
0.237,-7.49,-7.86,1
0.256,-7.61,-7.86,1
0.277,-7.61,-7.86,1
0.297,-7.61,-7.86,1
0.317,-7.61,-7.86,1
0.336,-7.61,-7.86,1
0.357,-7.61,-7.86,1
0.377,-7.61,-7.86,1
0.397,-7.49,-7.86,1
0.416,-7.61,-7.86,1
0.436,-7.49,-7.86,1
0.457,-7.49,-7.86,1
0.477,-7.49,-7.86,1
0.496,-7.61,-7.86,1
0.517,-7.49,-7.86,1
0.538,-7.61,-7.86,1
0.557,-7.61,-7.86,1
0.577,-7.49,-7.98,1
0.597,-7.61,-7.86,1
0.617,-7.61,-7.86,1
0.637,-7.49,-7.86,1
0.657,-7.61,-7.86,1
0.677,-7.61,-7.86,1
0.697,-7.61,-7.86,1
0.717,-7.49,-7.86,1
0.737,-7.61,-7.86,1
0.758,-7.49,-7.86,1
0.777,-7.61,-7.86,1
0.797,-7.61,-7.86,1
0.817,-7.61,-7.86,1
0.838,-7.61,-7.86,1
0.857,-7.49,-7.86,1
0.877,-7.49,-7.86,1
0.897,-7.49,-7.86,1
0.918,-7.49,-7.86,1
0.938,-7.61,-7.86,1
0.959,-7.61,-7.86,1
0.978,-7.49,-7.86,1
0.999,-7.61,-7.86,1
1.018,-7.61,-7.86,1
1.039,-7.61,-7.86,1
1.058,-7.61,-7.86,1
1.078,-7.49,-7.86,1
1.098,-7.49,-7.86,1
1.118,-7.61,-7.86,1
1.139,-7.61,-7.86,1
1.158,-7.49,-7.86,1
1.179,-7.49,-7.86,1
1.198,-7.49,-7.86,1
1.219,-7.61,-7.86,1
1.238,-7.61,-7.86,1
1.258,-7.61,-7.86,1
1.278,-7.61,-7.86,1
1.298,-7.61,-7.86,1
1.318,-7.61,-7.86,1
1.338,-7.49,-7.86,1
1.358,-7.61,-7.86,1
1.379,-7.49,-7.86,1
1.399,-7.49,-7.86,1
1.419,-7.49,-7.86,1
1.439,-7.61,-7.86,1
1.458,-7.61,-7.86,1
1.479,-7.49,-7.86,1
1.499,-7.61,-7.86,1
1.519,-7.61,-7.86,1
1.538,-7.49,-7.86,1
1.559,-7.61,-7.86,1
1.579,-7.49,-7.86,1
1.599,-7.61,-7.86,1
1.619,-7.61,-7.86,1
1.639,-7.61,-7.86,1
1.658,-7.61,-7.86,1
1.679,-7.61,-7.86,1
1.699,-7.61,-7.86,1
1.719,-7.61,-7.86,1
1.74,-7.61,-7.86,1
1.769,-7.61,-7.86,1
1.78,-7.61,-7.86,1
1.804,-7.61,-7.86,1
1.819,-7.49,-7.86,1
1.84,-7.61,-7.86,1
1.859,-7.61,-7.86,1
1.88,-7.61,-7.86,1
1.899,-7.61,-7.86,1
1.92,-7.61,-7.86,1
1.94,-7.61,-7.86,1
1.96,-7.61,-7.86,1
1.98,-7.61,-7.86,1
2.0,-7.61,-7.86,1
2.019,-7.61,-7.86,1
2.04,-7.49,-7.86,1
2.059,-7.49,-7.86,1
2.08,-7.49,-7.86,1
2.099,-7.61,-7.86,1
2.12,-7.61,-7.86,1
2.121,-7.49,-7.86,1
2.141,-7.61,-7.86,1
2.161,-7.61,-7.86,1
2.181,-7.61,-7.86,1
2.201,-7.49,-7.86,1
2.221,-7.49,-7.86,1
2.241,-7.61,-7.86,1
2.261,-7.61,-7.86,1
2.281,-7.61,-7.86,1
2.301,-7.61,-7.86,1
2.321,-7.61,-7.86,1
2.341,-7.49,-7.98,1
2.361,-7.61,-7.86,1
2.381,-7.61,-7.86,1
2.401,-7.49,-7.86,1
2.421,-7.49,-7.86,1
2.441,-7.61,-7.86,1
2.461,-7.61,-7.86,1
2.481,-7.61,-7.86,1
2.501,-7.61,-7.86,1
2.521,-7.61,-7.86,1
2.541,-7.49,-7.86,1
2.561,-7.49,-7.86,1
2.581,-7.61,-7.86,1
2.601,-7.61,-7.86,1
2.621,-7.49,-7.86,1
2.641,-7.61,-7.86,1
2.661,-7.61,-7.86,1
2.681,-7.61,-7.86,1
2.702,-7.61,-7.86,1
2.721,-7.61,-7.86,1
2.741,-7.61,-7.86,1
2.761,-7.49,-7.86,1
2.782,-7.61,-7.86,1
2.801,-7.61,-7.86,1
2.821,-7.61,-7.86,1
2.841,-7.49,-7.86,1
2.868,-7.61,-7.86,1
2.881,-7.61,-7.86,1
2.901,-7.49,-7.86,1
2.921,-7.61,-7.86,1
2.921,-7.49,-7.86,1
2.941,-7.61,-7.86,1
2.962,-7.49,-7.86,1
2.981,-7.61,-7.86,1
3.001,-7.61,-7.86,1
3.022,-7.49,-7.86,1
3.041,-7.61,-7.86,1
3.061,-7.49,-7.86,1
3.081,-7.61,-7.86,1
3.101,-7.61,-7.86,1
3.122,-7.61,-7.86,1
3.141,-7.49,-7.86,1
3.161,-7.49,-7.86,1
3.181,-7.61,-7.86,1
3.201,-7.49,-7.86,1
3.222,-7.61,-7.86,1
3.241,-7.61,-7.86,1
3.261,-7.49,-7.86,1
3.282,-7.49,-7.86,1
3.301,-7.61,-7.86,1
3.321,-7.61,-7.86,1
3.321,-7.49,-7.86,1
3.342,-7.49,-7.86,1
3.362,-7.49,-7.86,1
3.382,-7.37,-7.86,1
3.401,-7.37,-7.86,1
3.421,-7.37,-7.86,1
3.442,-7.37,-7.86,1
3.462,-7.37,-7.86,1
3.481,-7.49,-7.86,1
3.501,-7.49,-7.86,1
3.522,-7.49,-7.86,1
3.541,-7.49,-7.86,1
3.562,-7.49,-7.86,1
3.582,-7.49,-7.86,1
3.601,-7.49,-7.86,1
3.622,-7.49,-7.86,1
3.641,-7.61,-7.86,1
3.661,-7.49,-7.86,1
3.681,-7.49,-7.86,1
3.702,-7.49,-7.86,1
3.722,-7.49,-7.86,1
3.742,-7.49,-8.1,1
3.762,-7.49,-8.47,1
3.782,-7.61,-8.83,1
3.802,-7.61,-8.71,1
3.822,-7.61,-8.59,1
3.842,-7.49,-8.35,1
3.862,-7.49,-8.22,1
3.882,-7.49,-8.1,1
3.903,-7.49,-7.98,1
3.922,-7.61,-7.98,1
3.942,-7.49,-7.98,1
3.962,-7.61,-7.98,1
3.982,-7.49,-7.98,1
4.002,-7.49,-7.98,1
4.023,-7.49,-7.98,1
4.043,-7.61,-7.86,1
4.062,-7.61,-7.86,1
4.082,-7.49,-7.98,1
4.102,-7.61,-7.86,1
4.122,-7.61,-7.86,1
4.122,-7.61,-7.98,1
4.143,-7.61,-7.86,1
4.163,-7.61,-7.86,1
4.183,-7.61,-7.86,1
4.202,-7.49,-7.86,1
4.223,-7.49,-7.86,1
4.243,-7.49,-7.86,1
4.263,-7.49,-7.98,1
4.282,-7.49,-7.86,1
4.303,-7.61,-7.86,1
4.323,-7.49,-7.86,1
4.343,-7.61,-7.98,1
4.363,-7.49,-7.86,1
4.382,-7.61,-7.86,1
4.402,-7.61,-7.86,1
4.423,-7.49,-7.86,1
4.443,-7.61,-7.86,1
4.463,-7.49,-7.86,1
4.483,-7.49,-7.86,1
4.503,-7.49,-7.86,1
4.523,-7.49,-7.86,1
4.523,-7.49,-7.86,1
4.544,-7.49,-7.86,1
4.563,-7.61,-7.86,1
4.583,-7.49,-7.86,1
4.604,-7.37,-7.86,1
4.623,-6.76,-7.73,1
4.643,-6.15,-7.25,1
4.663,-5.66,-6.63,1
4.683,-5.41,-6.27,1
4.703,-5.17,-5.9,1
4.723,-4.92,-5.78,1
4.743,-4.68,-5.66,1
4.763,-4.44,-5.54,1
4.783,-4.31,-5.41,1
4.804,-4.31,-5.29,1
4.823,-4.19,-5.17,1
4.843,-4.19,-5.05,1
4.864,-4.19,-4.92,1
4.883,-4.31,-5.05,1
4.904,-4.19,-4.92,1
4.923,-4.07,-4.92,1
4.943,-3.95,-4.92,0
4.963,-3.82,-4.92,0
4.983,-3.82,-4.92,0
5.003,-3.82,-4.92,0
5.023,-3.82,-4.92,0
5.044,-4.07,-4.92,0
5.063,-3.95,-4.8,0
5.083,-3.82,-4.8,0
5.104,-3.95,-4.8,0
5.123,-3.82,-4.8,0
5.143,-3.82,-4.8,0
5.164,-3.82,-4.68,0
5.183,-3.95,-4.68,0
5.204,-3.95,-4.8,0
5.224,-3.95,-4.8,0
5.243,-3.82,-4.8,0
5.264,-3.7,-4.8,0
5.284,-3.7,-4.8,0
5.304,-3.82,-4.68,0
5.324,-3.82,-4.68,0
5.344,-3.82,-4.68,0
5.364,-3.82,-4.68,0
5.384,-3.95,-4.68,0
5.404,-3.82,-4.68,0
5.424,-3.82,-4.8,0
5.445,-3.82,-4.68,0
5.464,-3.95,-4.8,0
5.484,-3.82,-4.8,0
5.504,-3.82,-4.8,0
5.525,-3.82,-4.68,0
5.544,-3.7,-4.68,0
5.564,-3.7,-4.68,0
5.585,-3.7,-4.56,0
5.604,-3.7,-4.56,0
5.624,-3.58,-4.56,0
5.644,-3.7,-4.56,0
5.665,-3.7,-4.56,0
5.685,-4.19,-5.17,0
5.704,-5.29,-6.15,0
5.724,-6.27,-6.88,0
5.744,-6.76,-7.98,0
5.771,-7.12,-8.96,0
5.785,-7.98,-9.32,0
5.804,-8.83,-9.57,0
5.825,-9.32,-9.69,0
5.845,-9.57,-9.81,0
5.864,-9.69,-9.81,0
5.884,-9.81,-9.93,0
5.905,-9.93,-9.93,0
5.925,-10.06,-10.06,0
5.944,-9.93,-9.93,0
5.965,-10.06,-10.06,0
5.985,-10.18,-10.06,0
6.004,-10.06,-10.06,0
6.024,-10.06,-10.06,0
6.045,-10.18,-10.06,0
6.064,-10.18,-10.06,0
6.084,-10.18,-10.06,0
6.105,-10.18,-10.06,0
6.125,-10.18,-10.06,0
6.125,-10.18,-10.06,0
6.145,-10.18,-10.06,0
6.165,-10.18,-10.06,0
6.186,-10.3,-10.18,0
6.205,-10.3,-10.18,0
6.225,-10.3,-10.18,0
6.246,-10.18,-10.18,0
6.271,-10.18,-10.18,0
6.286,-10.18,-10.18,0
6.306,-10.18,-10.18,0
6.325,-10.18,-10.18,0
6.345,-10.3,-10.18,0
6.365,-10.18,-10.18,0
6.386,-10.3,-10.3,0
6.405,-10.3,-10.18,1
6.425,-10.18,-10.18,1
6.446,-10.18,-10.18,1
6.465,-10.18,-10.3,1
6.487,-10.3,-10.18,1
6.505,-10.3,-10.18,1
6.525,-10.3,-10.18,1
6.525,-10.3,-10.3,1
6.546,-10.3,-10.18,1
6.571,-10.3,-10.18,1
6.585,-10.3,-10.3,1
6.606,-10.3,-10.3,1
6.626,-10.3,-10.3,1
6.646,-10.3,-10.3,1
6.666,-10.18,-10.06,1
6.686,-9.45,-9.45,1
6.706,-8.96,-8.83,1
6.726,-8.47,-7.98,1
6.746,-7.98,-7.25,1
6.765,-7.25,-6.63,1
6.786,-6.51,-6.27,1
6.806,-6.02,-6.02,1
6.826,-5.54,-5.9,1
6.846,-5.17,-5.78,1
6.865,-4.92,-5.54,1
6.886,-4.8,-5.41,1
6.906,-4.68,-5.41,1
6.926,-4.56,-5.29,1
6.926,-4.68,-5.17,1
6.946,-4.56,-5.17,1
6.967,-4.44,-5.17,1
6.987,-4.19,-5.17,1
7.007,-4.19,-5.05,0
7.026,-4.07,-5.17,0
7.046,-4.07,-5.05,0
7.066,-4.07,-5.05,0
7.086,-4.07,-5.05,0
7.106,-4.19,-4.92,0
7.126,-4.07,-4.92,0
7.146,-3.95,-4.92,0
7.167,-3.95,-4.92,0
7.187,-4.07,-4.92,0
7.206,-4.07,-4.92,0
7.227,-3.95,-4.92,0
7.246,-4.07,-4.92,0
7.271,-4.07,-4.92,0
7.286,-3.95,-4.92,0
7.307,-3.82,-4.92,0
7.327,-3.82,-4.8,0
7.347,-3.82,-4.8,0
7.368,-3.82,-4.8,0
7.387,-3.95,-4.8,0
7.407,-3.95,-4.8,0
7.427,-3.95,-4.68,0
7.448,-3.95,-4.8,0
7.467,-3.95,-4.8,0
7.487,-3.82,-4.8,0
7.507,-3.82,-4.8,0
7.527,-3.82,-4.8,0
7.547,-3.82,-4.92,0
7.567,-3.82,-4.8,0
7.587,-3.7,-4.68,0
7.607,-3.7,-4.68,0
7.634,-3.7,-4.68,0
7.647,-3.7,-4.68,0
7.667,-3.58,-4.56,0
7.687,-3.7,-4.68,0
7.707,-3.7,-4.56,0
7.728,-3.82,-4.56,0
7.749,-4.8,-5.54,0
7.771,-5.78,-6.51,0
7.789,-6.51,-7.25,0
7.808,-7.0,-8.47,0
7.828,-7.49,-9.08,0
7.848,-8.47,-9.45,0
7.868,-9.2,-9.57,0
7.889,-9.45,-9.81,0
7.909,-9.69,-9.93,0
7.928,-9.81,-9.93,0
7.949,-9.93,-9.93,0
7.969,-9.93,-9.93,0
7.988,-10.06,-9.93,0
8.009,-10.06,-10.06,0
8.028,-10.06,-10.06,0
8.049,-10.06,-10.18,0
8.069,-10.06,-10.06,0
8.088,-10.18,-10.06,0
8.109,-10.18,-10.06,0
8.128,-10.18,-10.06,0
8.149,-10.18,-10.06,0
8.171,-10.18,-10.06,0
8.189,-10.18,-10.06,0
8.208,-10.18,-10.06,0
8.228,-10.18,-10.18,0
8.249,-10.18,-10.18,0
8.271,-10.3,-10.18,0
8.289,-10.18,-10.18,0
8.308,-10.18,-10.18,0
8.328,-10.18,-10.18,0
8.349,-10.18,-10.18,0
8.368,-10.18,-10.18,0
8.388,-10.18,-10.18,0
8.409,-10.18,-10.18,0
8.429,-10.3,-10.18,0
8.449,-10.18,-10.18,0
8.469,-10.3,-10.18,1
8.488,-10.3,-10.18,1
8.509,-10.18,-10.18,1
8.529,-10.18,-10.18,1
8.549,-10.18,-10.18,1
8.57,-10.3,-10.18,1
8.59,-10.3,-10.18,1
8.609,-10.3,-10.3,1
8.629,-10.3,-10.18,1
8.649,-10.3,-10.18,1
8.67,-10.3,-10.3,1
8.689,-10.3,-10.3,1
8.71,-10.3,-10.3,1
8.73,-10.3,-10.3,1
8.749,-10.3,-10.3,1
8.77,-9.93,-9.81,1
8.79,-9.2,-9.2,1
8.809,-8.71,-8.59,1
8.829,-8.35,-7.73,1
8.849,-7.73,-7.0,1
8.87,-6.88,-6.51,1
8.889,-6.39,-6.27,1
8.91,-6.02,-6.02,1
8.929,-5.41,-5.78,1
8.949,-4.92,-5.66,1
8.97,-4.8,-5.54,1
8.989,-4.68,-5.41,1
9.01,-4.68,-5.29,1
9.029,-4.56,-5.17,1
9.05,-4.56,-5.17,1
9.07,-4.68,-5.05,1
9.089,-4.56,-5.05,1
9.11,-4.07,-5.05,1
9.13,-3.95,-5.05,0
9.15,-3.95,-5.05,0
9.17,-3.95,-5.05,0
9.189,-3.95,-4.92,0
9.209,-4.07,-4.92,0
9.23,-4.19,-4.92,0
9.249,-4.07,-4.92,0
9.271,-3.95,-4.8,0
9.29,-3.95,-4.8,0
9.31,-3.95,-4.8,0
9.33,-3.95,-4.8,0
9.35,-3.95,-4.8,0
9.371,-4.07,-4.8,0
9.39,-4.19,-4.8,0
9.41,-4.07,-4.8,0
9.431,-3.7,-4.8,0
9.45,-3.7,-4.8,0
9.47,-3.7,-4.8,0
9.49,-3.82,-4.8,0
9.51,-3.82,-4.8,0
9.53,-3.95,-4.68,0
9.55,-4.07,-4.8,0
9.571,-4.07,-4.8,0
9.59,-3.82,-4.8,0
9.611,-3.82,-4.8,0
9.63,-3.82,-4.8,0
9.65,-3.82,-4.92,0
9.67,-3.95,-4.8,0
9.69,-3.95,-4.8,0
9.71,-3.95,-4.8,0
9.73,-3.82,-4.68,0
9.754,-3.7,-4.68,0
9.771,-3.7,-4.68,0
9.791,-3.7,-4.68,0
9.811,-3.7,-4.68,0
9.831,-3.82,-4.68,0
9.851,-4.92,-5.66,0
9.871,-5.9,-6.63,0
9.89,-6.63,-7.49,0
9.911,-7.12,-8.59,0
9.931,-7.73,-9.2,0
9.95,-8.71,-9.57,0
9.97,-9.32,-9.69,0
9.99,-9.45,-9.81,0
10.012,-9.57,-9.81,0
10.031,-9.81,-9.93,0
10.051,-9.93,-9.93,0
10.071,-10.06,-9.93,0
10.09,-10.06,-9.93,0
10.111,-10.18,-10.06,0
10.131,-10.18,-10.06,0
10.152,-9.93,-10.18,0
10.171,-10.06,-10.06,0
10.192,-10.18,-10.06,0
10.211,-10.3,-10.06,0
10.231,-10.18,-10.06,0
10.252,-10.18,-10.06,0
10.271,-10.18,-10.06,0
10.291,-10.18,-10.06,0
10.311,-10.18,-10.06,0
10.331,-10.18,-10.06,0
10.352,-10.18,-10.18,0
10.372,-10.18,-10.18,0
10.392,-10.18,-10.18,0
10.411,-10.18,-10.18,0
10.431,-10.18,-10.18,0
10.451,-10.18,-10.18,0
10.472,-10.18,-10.18,0
10.492,-10.3,-10.18,0
10.511,-10.3,-10.18,0
10.532,-10.3,-10.18,1
10.553,-10.3,-10.18,1
10.573,-10.18,-10.18,1
10.592,-10.18,-10.18,1
10.612,-10.18,-10.18,1
10.633,-10.3,-10.18,1
10.652,-10.3,-10.18,1
10.672,-10.3,-10.18,1
10.692,-10.3,-10.18,1
10.712,-10.3,-10.18,1
10.732,-10.18,-10.18,1
10.752,-10.3,-10.3,1
10.772,-10.3,-10.18,1
10.792,-10.3,-10.18,1
10.812,-10.3,-10.18,1
10.833,-9.69,-9.57,1
10.852,-9.08,-8.96,1
10.872,-8.59,-8.22,1
10.892,-8.1,-7.25,1
10.912,-7.37,-6.63,1
10.933,-6.63,-6.27,1
10.954,-6.15,-6.02,1
10.974,-5.54,-5.9,1
10.994,-5.05,-5.78,1
11.014,-4.92,-5.66,1
11.034,-4.8,-5.41,1
11.054,-4.56,-5.41,1
11.073,-4.56,-5.29,1
11.094,-4.68,-5.17,1
11.114,-4.68,-5.17,1
11.133,-4.31,-5.17,1
11.154,-4.07,-5.05,0
11.174,-3.95,-5.17,0
11.194,-3.95,-5.17,0
11.213,-3.95,-5.05,0
11.234,-4.07,-5.17,0
11.254,-4.19,-5.05,0
11.274,-4.19,-4.92,0
11.293,-4.07,-4.92,0
11.314,-3.95,-4.92,0
11.334,-3.95,-4.92,0
11.334,-3.95,-4.92,0
11.354,-3.95,-4.92,0
11.375,-4.19,-4.92,0
11.394,-4.07,-4.92,0
11.415,-4.07,-4.92,0
11.434,-3.82,-4.92,0
11.454,-3.82,-4.92,0
11.474,-3.82,-4.8,0
11.495,-3.82,-4.8,0
11.514,-3.95,-4.8,0
11.534,-4.07,-4.8,0
11.555,-4.07,-4.68,0
11.574,-4.07,-4.8,0
11.594,-3.82,-4.8,0
11.615,-3.95,-4.92,0
11.634,-3.82,-4.92,0
11.654,-3.95,-4.92,0
11.674,-3.95,-4.8,0
11.694,-3.82,-4.8,0
11.714,-3.95,-4.8,0
11.734,-3.82,-4.8,0
11.734,-3.7,-4.68,0
11.754,-3.58,-4.68,0
11.774,-3.7,-4.68,0
11.794,-3.82,-4.8,0
11.815,-3.95,-4.92,0
11.835,-5.17,-6.02,0
11.854,-6.02,-6.88,0
11.875,-6.76,-7.86,0
11.894,-7.12,-8.83,0
11.914,-7.86,-9.45,0
11.934,-8.83,-9.57,0
11.954,-9.32,-9.81,0
11.974,-9.57,-9.81,0
11.994,-9.57,-9.93,0
12.015,-9.81,-9.93,0
12.034,-9.93,-9.93,0
12.055,-10.06,-9.93,0
12.074,-10.06,-10.06,0
12.095,-10.06,-10.06,0
12.115,-10.06,-10.06,0
12.134,-9.93,-10.06,0
12.134,-10.18,-10.06,0
12.154,-10.3,-10.06,0
12.175,-10.3,-10.06,0
12.194,-10.3,-10.06,0
12.214,-10.3,-10.06,0
12.234,-10.18,-10.06,0
12.254,-10.18,-10.06,0
12.274,-10.18,-10.06,0
12.295,-10.3,-10.06,0
12.314,-10.3,-10.06,0
12.334,-10.3,-10.06,0
12.354,-10.18,-10.06,0
12.375,-10.18,-10.18,0
12.394,-10.18,-10.18,0
12.414,-10.18,-10.18,0
12.435,-10.3,-10.18,0
12.455,-10.3,-10.06,0
12.475,-10.3,-10.18,0
12.495,-10.3,-10.18,1
12.515,-10.18,-10.18,1
12.534,-10.18,-10.18,1
12.534,-10.18,-10.18,1
12.555,-10.18,-10.18,1
12.575,-10.18,-10.18,1
12.595,-10.18,-10.18,1
12.615,-10.3,-10.18,1
12.634,-10.3,-10.18,1
12.655,-10.3,-10.18,1
12.675,-10.3,-10.18,1
12.695,-10.3,-10.18,1
12.715,-10.3,-10.18,1
12.734,-10.3,-10.3,1
12.755,-10.18,-10.06,1
12.775,-9.45,-9.45,1
12.795,-8.83,-8.83,1
12.814,-8.47,-7.98,1
12.834,-7.86,-7.12,1
12.854,-7.12,-6.63,1
12.875,-6.39,-6.27,1
12.895,-6.02,-6.15,1
12.915,-5.41,-5.9,1
12.935,-4.92,-5.66,1
12.935,-4.8,-5.54,1
12.956,-4.68,-5.41,1
12.976,-4.56,-5.29,1
12.995,-4.68,-5.29,1
13.015,-4.68,-5.17,1
13.035,-4.68,-5.17,1
13.055,-4.44,-5.17,1
13.075,-4.07,-5.17,0
13.095,-4.07,-5.17,0
13.115,-4.07,-5.17,0
13.136,-4.07,-5.17,0
13.155,-4.19,-5.05,0
13.175,-4.31,-5.05,0
13.195,-4.07,-4.92,0
13.215,-4.07,-4.92,0
13.235,-3.95,-4.92,0
13.255,-3.95,-4.92,0
13.275,-3.95,-4.92,0
13.295,-4.07,-4.92,0
13.315,-4.19,-4.92,0
13.335,-4.19,-5.05,0
13.356,-4.07,-4.92,0
13.376,-3.82,-4.92,0
13.396,-3.82,-4.92,0
13.416,-3.82,-4.8,0
13.436,-3.95,-4.92,0
13.456,-3.95,-4.8,0
13.476,-4.07,-4.8,0
13.496,-4.07,-4.8,0
13.516,-3.95,-4.8,0
13.536,-3.82,-4.92,0
13.556,-3.95,-4.92,0
13.576,-3.82,-4.92,0
13.596,-3.82,-4.92,0
13.616,-3.95,-4.8,0
13.636,-3.82,-4.8,0
13.656,-3.82,-4.68,0
13.676,-3.82,-4.68,0
13.696,-3.7,-4.68,0
13.716,-3.7,-4.68,0
13.736,-3.7,-4.68,0
13.737,-3.7,-4.68,0
13.758,-4.07,-5.05,0
13.778,-5.29,-6.15,0
13.797,-6.27,-7.0,0
13.817,-6.76,-8.1,0
13.837,-7.25,-8.96,0
13.857,-8.22,-9.45,0
13.877,-8.96,-9.57,0
13.897,-9.32,-9.81,0
13.917,-9.57,-9.81,0
13.937,-9.81,-9.93,0
13.957,-9.93,-10.06,0
13.977,-10.06,-9.93,0
14.0,-10.06,-9.93,0
14.017,-10.06,-10.06,0
14.037,-10.06,-10.06,0
14.057,-10.06,-10.06,0
14.077,-10.06,-10.06,0
14.097,-10.18,-10.06,0
14.117,-10.3,-10.06,0
14.137,-10.3,-10.06,0
14.157,-10.18,-10.06,0
14.178,-10.3,-10.06,0
14.198,-10.18,-10.06,0
14.218,-10.18,-10.06,0
14.238,-10.3,-10.06,0
14.258,-10.3,-10.18,0
14.278,-10.18,-10.18,0
14.297,-10.3,-10.06,0
14.318,-10.18,-10.18,0
14.338,-10.18,-10.18,0
14.358,-10.18,-10.18,0
14.378,-10.18,-10.18,0
14.397,-10.3,-10.18,0
14.418,-10.3,-10.18,0
14.438,-10.3,-10.18,0
14.458,-10.3,-10.06,1
14.478,-10.3,-10.18,1
14.497,-10.18,-10.18,1
14.521,-10.18,-10.18,1
14.537,-10.18,-10.18,1
14.537,-10.18,-10.18,1
14.558,-10.3,-10.18,1
14.578,-10.3,-10.18,1
14.598,-10.3,-10.18,1
14.618,-10.3,-10.18,1
14.638,-10.3,-10.18,1
14.658,-10.3,-10.18,1
14.678,-10.3,-10.18,1
14.698,-10.3,-10.3,1
14.718,-9.93,-9.81,1
14.738,-9.32,-9.2,1
14.758,-8.71,-8.59,1
14.778,-8.35,-7.61,1
14.798,-7.73,-6.88,1
14.818,-7.0,-6.51,1
14.838,-6.27,-6.15,1
14.858,-5.9,-6.02,1
14.878,-5.29,-5.78,1
14.898,-5.05,-5.66,1
14.918,-4.8,-5.54,1
14.938,-4.68,-5.41,1
14.959,-4.56,-5.29,1
14.979,-4.68,-5.29,1
14.999,-4.68,-5.17,1
15.019,-4.56,-5.17,1
15.039,-4.31,-5.17,1
15.059,-4.07,-5.17,0
15.079,-4.07,-5.17,0
15.099,-3.95,-5.05,0
15.12,-4.07,-5.05,0
15.139,-4.31,-4.92,0
15.159,-4.19,-5.05,0
15.179,-4.07,-4.92,0
15.199,-3.95,-4.92,0
15.219,-3.95,-4.92,0
15.239,-3.95,-4.92,0
15.259,-3.95,-4.92,0
15.279,-4.07,-4.92,0
15.299,-4.19,-4.92,0
15.319,-4.07,-4.92,0
15.339,-3.95,-4.92,0
15.359,-3.82,-4.92,0
15.38,-3.82,-4.92,0
15.399,-3.82,-4.8,0
15.42,-3.82,-4.8,0
15.44,-4.07,-4.8,0
15.46,-4.07,-4.8,0
15.48,-4.07,-4.8,0
15.5,-3.82,-4.8,0
15.519,-3.82,-4.92,0
15.54,-3.82,-5.05,0
15.56,-3.82,-4.92,0
15.579,-3.82,-4.92,0
15.6,-3.82,-4.92,0
15.619,-3.82,-4.8,0
15.639,-3.82,-4.8,0
15.659,-3.82,-4.68,0
15.68,-3.7,-4.68,0
15.699,-3.7,-4.68,0
15.72,-3.82,-4.68,0
15.739,-3.82,-4.8,0
15.739,-4.56,-5.54,0
15.759,-5.78,-6.51,0
15.78,-6.51,-7.25,0
15.8,-7.0,-8.47,0
15.82,-7.61,-9.2,0
15.84,-8.59,-9.45,0
15.86,-9.2,-9.69,0
15.88,-9.45,-9.69,0
15.9,-9.69,-9.81,0
15.919,-9.81,-9.93,0
15.939,-9.93,-9.93,0
15.959,-10.06,-9.93,0
15.98,-10.06,-9.93,0
16.0,-10.06,-10.06,0
16.02,-10.06,-10.06,0
16.039,-10.06,-10.06,0
16.06,-10.06,-10.06,0
16.08,-10.18,-10.06,0
16.099,-10.18,-10.06,0
16.12,-10.18,-10.06,0
16.14,-10.18,-10.06,0
16.161,-10.18,-10.06,0
16.181,-10.18,-10.18,0
16.201,-10.18,-10.18,0
16.221,-10.18,-10.18,0
16.241,-10.18,-10.18,0
16.261,-10.18,-10.18,0
16.281,-10.18,-10.18,0
16.302,-10.18,-10.18,0
16.321,-10.18,-10.18,0
16.341,-10.18,-10.18,0
16.361,-10.18,-10.18,0
16.381,-10.3,-10.18,0
16.401,-10.3,-10.18,0
16.42,-10.3,-10.18,0
16.44,-10.18,-10.18,1
16.461,-10.18,-10.18,1
16.481,-10.18,-10.18,1
16.501,-10.18,-10.18,1
16.52,-10.18,-10.18,1
16.541,-10.18,-10.18,1
16.562,-10.3,-10.18,1
16.581,-10.3,-10.18,1
16.601,-10.3,-10.18,1
16.621,-10.3,-10.18,1
16.641,-10.3,-10.18,1
16.661,-10.3,-10.18,1
16.681,-10.3,-10.18,1
16.701,-10.3,-10.3,1
16.721,-9.81,-9.69,1
16.742,-9.2,-9.08,1
16.761,-8.71,-8.35,1
16.781,-8.22,-7.49,1
16.801,-7.49,-6.76,1
16.821,-6.76,-6.39,1
16.841,-6.27,-6.15,1
16.861,-5.66,-5.9,1
16.881,-5.29,-5.78,1
16.901,-4.92,-5.66,1
16.921,-4.8,-5.54,1
16.941,-4.68,-5.41,1
16.962,-4.56,-5.29,1
16.982,-4.68,-5.29,1
17.002,-4.68,-5.17,1
17.022,-4.56,-5.17,1
17.041,-4.31,-5.17,1
17.061,-3.95,-5.17,0
17.082,-3.95,-5.17,0
17.102,-3.95,-5.17,0
17.122,-4.07,-5.05,0
17.141,-4.19,-5.05,0
17.162,-4.19,-5.05,0
17.182,-4.07,-4.92,0
17.202,-3.95,-4.92,0
17.222,-3.95,-4.92,0
17.242,-3.95,-4.92,0
17.261,-3.95,-4.92,0
17.282,-3.95,-4.92,0
17.302,-4.19,-4.92,0
17.322,-4.19,-4.92,0
17.342,-4.07,-4.92,0
17.342,-3.82,-4.92,0
17.362,-3.82,-4.92,0
17.382,-3.82,-4.8,0
17.403,-3.95,-4.8,0
17.422,-4.07,-4.8,0
17.442,-4.07,-4.8,0
17.462,-4.07,-4.8,0
17.482,-4.07,-4.8,0
17.502,-3.95,-4.8,0
17.522,-3.95,-4.92,0
17.542,-3.95,-4.92,0
17.562,-3.95,-4.8,0
17.582,-3.95,-4.8,0
17.603,-3.82,-4.8,0
17.622,-3.95,-4.68,0
17.642,-3.82,-4.68,0
17.662,-3.7,-4.68,0
17.682,-3.7,-4.68,0
17.704,-3.82,-4.68,0
17.722,-3.95,-4.8,0
17.742,-4.92,-5.9,0
17.742,-6.02,-6.76,0
17.762,-6.63,-7.61,0
17.782,-7.12,-8.71,0
17.802,-7.86,-9.32,0
17.823,-8.71,-9.57,0
17.842,-9.32,-9.69,0
17.862,-9.57,-9.81,0
17.882,-9.81,-9.93,0
17.903,-9.81,-9.93,0
17.923,-9.93,-9.93,0
17.943,-9.93,-10.06,0
17.962,-10.06,-10.06,0
17.982,-10.06,-10.06,0
18.003,-9.93,-10.06,0
18.022,-10.06,-10.06,0
18.043,-10.18,-10.06,0
18.063,-10.3,-10.06,0
18.083,-10.3,-10.06,0
18.103,-10.18,-10.06,0
18.123,-10.18,-10.06,0
18.143,-10.18,-10.06,0
18.143,-10.18,-10.06,0
18.164,-10.18,-10.06,0
18.183,-10.18,-10.06,0
18.203,-10.18,-10.06,0
18.224,-10.18,-10.18,0
18.243,-10.18,-10.06,0
18.271,-10.18,-10.18,0
18.284,-10.18,-10.06,0
18.303,-10.18,-10.18,0
18.323,-10.3,-10.18,0
18.344,-10.3,-10.18,0
18.364,-10.3,-10.18,0
18.383,-10.3,-10.18,1
18.403,-10.3,-10.18,1
18.423,-10.18,-10.18,1
18.444,-10.18,-10.18,1
18.464,-10.18,-10.18,1
18.483,-10.3,-10.18,1
18.503,-10.3,-10.18,1
18.524,-10.18,-10.18,1
18.544,-10.3,-10.18,1
18.565,-10.3,-10.18,1
18.584,-10.3,-10.18,1
18.605,-10.3,-10.18,1
18.624,-10.3,-10.18,1
18.644,-10.3,-10.18,1
18.664,-10.3,-10.18,1
18.684,-9.57,-9.57,1
18.705,-9.08,-8.96,1
18.724,-8.59,-8.1,1
18.744,-7.98,-7.25,1
18.771,-7.37,-6.63,1
18.784,-6.51,-6.39,1
18.804,-6.02,-6.15,1
18.824,-5.54,-5.9,1
18.845,-5.17,-5.66,1
18.864,-4.92,-5.54,1
18.885,-4.8,-5.41,1
18.904,-4.56,-5.41,1
18.924,-4.56,-5.29,1
18.944,-4.68,-5.17,1
18.965,-4.56,-5.17,1
18.985,-4.44,-5.17,1
19.005,-4.31,-5.17,0
19.025,-4.07,-5.17,0
19.045,-3.95,-5.17,0
19.065,-4.07,-5.17,0
19.085,-4.07,-5.05,0
19.105,-4.19,-5.05,0
19.125,-4.07,-4.92,0
19.145,-4.07,-4.92,0
19.165,-4.07,-4.92,0
19.185,-3.95,-4.92,0
19.205,-4.07,-4.92,0
19.225,-4.07,-4.92,0
19.245,-4.19,-5.05,0
19.271,-4.19,-5.05,0
19.285,-4.07,-5.05,0
19.305,-4.07,-5.05,0
19.325,-3.95,-4.92,0
19.345,-3.95,-4.92,0
19.345,-3.95,-4.92,0
19.366,-3.95,-4.8,0
19.386,-4.07,-4.8,0
19.406,-4.07,-4.8,0
19.426,-4.07,-4.92,0
19.446,-4.07,-4.8,0
19.466,-3.95,-4.92,0
19.486,-3.95,-4.92,0
19.506,-3.95,-5.05,0
19.526,-3.95,-4.92,0
19.546,-3.95,-4.8,0
19.566,-3.82,-4.8,0
19.586,-3.95,-4.68,0
19.606,-3.82,-4.68,0
19.626,-3.7,-4.68,0
19.645,-3.7,-4.68,0
19.666,-3.82,-4.68,0
19.686,-4.07,-4.92,0
19.706,-5.29,-6.02,0
19.726,-6.27,-6.76,0
19.746,-6.76,-7.73,0
19.746,-7.25,-8.83,0
19.766,-8.1,-9.32,0
19.787,-8.83,-9.57,0
19.807,-9.32,-9.69,0
19.827,-9.57,-9.81,0
19.846,-9.81,-9.81,0
19.866,-9.81,-9.93,0
19.886,-9.93,-9.93,0
19.906,-9.93,-9.93,0
19.926,-9.93,-10.06,0
19.947,-9.93,-10.06,0
19.967,-9.93,-10.18,0
19.986,-10.06,-10.06,0
20.006,-10.18,-10.06,0
20.027,-10.18,-10.06,0
20.047,-10.18,-10.06,0
20.066,-10.18,-10.06,0
20.087,-10.18,-10.06,0
20.107,-10.18,-10.06,0
20.126,-10.18,-10.06,0
20.146,-10.18,-10.06,0
20.166,-10.3,-10.18,0
20.186,-10.3,-10.18,0
20.207,-10.3,-10.18,0
20.227,-10.18,-10.18,0
20.247,-10.18,-10.18,0
20.267,-10.18,-10.18,0
20.287,-10.18,-10.06,0
20.308,-10.3,-10.18,0
20.327,-10.3,-10.18,0
20.347,-10.3,-10.18,0
20.367,-10.18,-10.18,1
20.387,-10.3,-10.18,1
20.407,-10.3,-10.18,1
20.427,-10.18,-10.18,1
20.447,-10.18,-10.18,1
20.467,-10.18,-10.18,1
20.487,-10.3,-10.18,1
20.507,-10.18,-10.18,1
20.526,-10.18,-10.18,1
20.547,-10.3,-10.18,1
20.547,-10.3,-10.18,1
20.567,-10.3,-10.18,1
20.587,-10.3,-10.18,1
20.608,-10.3,-10.3,1
20.627,-10.18,-10.06,1
20.647,-9.57,-9.45,1
20.668,-8.96,-8.83,1
20.687,-8.47,-7.98,1
20.707,-7.98,-7.12,1
20.728,-7.25,-6.63,1
20.747,-6.51,-6.39,1
20.768,-6.02,-6.15,1
20.788,-5.41,-5.9,1
20.807,-5.17,-5.78,1
20.827,-4.92,-5.66,1
20.848,-4.68,-5.41,1
20.867,-4.68,-5.29,1
20.887,-4.68,-5.29,1
20.908,-4.8,-5.17,1
20.928,-4.56,-5.17,1
20.948,-4.44,-5.17,1
20.968,-4.31,-5.17,0
20.988,-4.07,-5.17,0
21.009,-3.95,-5.17,0
21.029,-4.07,-5.05,0
21.048,-4.19,-5.05,0
21.068,-4.31,-4.92,0
21.088,-4.07,-4.92,0
21.109,-4.19,-4.92,0
21.129,-4.07,-4.92,0
21.149,-3.95,-4.92,0
21.168,-4.07,-4.92,0
21.188,-4.07,-4.92,0
21.209,-4.19,-4.92,0
21.229,-4.19,-4.92,0
21.248,-4.07,-4.92,0
21.268,-4.07,-4.92,0
21.289,-3.95,-4.92,0
21.309,-3.95,-4.8,0
21.328,-3.95,-4.8,0
21.349,-3.95,-4.92,0
21.349,-4.19,-4.8,0
21.37,-4.07,-4.8,0
21.389,-4.07,-4.8,0
21.409,-4.07,-4.92,0
21.43,-3.95,-4.92,0
21.449,-3.95,-5.05,0
21.47,-3.82,-4.92,0
21.489,-3.82,-4.92,0
21.509,-3.82,-4.92,0
21.529,-3.82,-4.8,0
21.55,-3.82,-4.68,0
21.57,-3.82,-4.68,0
21.59,-3.7,-4.8,0
21.61,-3.7,-4.68,0
21.63,-3.82,-4.8,0
21.649,-4.07,-5.05,0
21.67,-5.29,-6.15,0
21.69,-6.27,-6.88,0
21.71,-6.76,-7.98,0
21.73,-7.25,-8.96,0
21.75,-8.1,-9.45,0
21.77,-8.83,-9.69,0
21.79,-9.32,-9.69,0
21.81,-9.69,-9.81,0
21.83,-9.81,-9.81,0
21.85,-9.93,-9.93,0
21.87,-9.93,-9.93,0
21.89,-10.06,-9.93,0
21.91,-10.06,-9.93,0
21.93,-10.06,-10.06,0
21.95,-10.06,-10.06,0
21.97,-10.18,-10.06,0
21.99,-10.18,-10.06,0
22.01,-10.3,-10.06,0
22.03,-10.18,-10.06,0
22.05,-10.18,-10.06,0
22.07,-10.18,-10.06,0
22.09,-10.18,-10.06,0
22.11,-10.18,-10.06,0
22.13,-10.18,-10.06,0
22.15,-10.3,-10.06,0
22.17,-10.3,-10.18,0
22.19,-10.18,-10.18,0
22.211,-10.18,-10.18,0
22.231,-10.18,-10.18,0
22.25,-10.18,-10.18,0
22.271,-10.18,-10.18,0
22.291,-10.3,-10.18,0
22.31,-10.3,-10.18,0
22.331,-10.3,-10.18,0
22.35,-10.3,-10.18,1
22.371,-10.18,-10.18,1
22.391,-10.18,-10.18,1
22.411,-10.18,-10.18,1
22.431,-10.18,-10.18,1
22.451,-10.18,-10.18,1
22.471,-10.3,-10.18,1
22.49,-10.3,-10.18,1
22.51,-10.3,-10.18,1
22.53,-10.3,-10.18,1
22.551,-10.3,-10.18,1
22.551,-10.3,-10.18,1
22.572,-10.3,-10.18,1
22.592,-10.3,-10.3,1
22.612,-10.06,-9.93,1
22.631,-9.45,-9.32,1
22.651,-8.83,-8.71,1
22.672,-8.35,-7.86,1
22.691,-7.86,-7.0,1
22.712,-7.0,-6.51,1
22.732,-6.39,-6.27,1
22.751,-5.78,-6.02,1
22.772,-5.41,-5.9,1
22.791,-5.17,-5.78,1
22.811,-4.92,-5.54,1
22.831,-4.8,-5.41,1
22.852,-4.68,-5.41,1
22.871,-4.68,-5.29,1
22.891,-4.8,-5.29,1
22.912,-4.68,-5.17,1
22.932,-4.44,-5.17,1
22.951,-4.31,-5.17,0
22.952,-4.07,-5.17,0
22.972,-3.95,-5.17,0
22.992,-4.07,-5.05,0
23.012,-4.19,-5.05,0
23.033,-4.19,-5.05,0
23.052,-4.07,-4.92,0
23.072,-4.07,-4.92,0
23.092,-4.07,-4.92,0
23.112,-4.07,-4.92,0
23.132,-4.07,-4.92,0
23.152,-4.07,-4.92,0
23.172,-4.07,-4.92,0
23.192,-4.19,-5.05,0
23.212,-3.95,-4.92,0
23.232,-3.95,-4.92,0
23.252,-3.95,-4.92,0
23.272,-3.82,-4.8,0
23.292,-3.95,-4.8,0
23.312,-3.95,-4.8,0
23.332,-4.07,-4.8,0
23.353,-4.07,-4.8,0
23.373,-3.95,-4.8,0
23.393,-4.07,-4.8,0
23.413,-3.95,-4.92,0
23.433,-3.95,-4.92,0
23.453,-3.82,-4.92,0
23.473,-3.82,-4.8,0
23.494,-3.82,-4.8,0
23.514,-3.82,-4.8,0
23.533,-3.82,-4.8,0
23.554,-3.82,-4.68,0
23.574,-3.7,-4.68,0
23.593,-3.82,-4.8,0
23.614,-3.82,-4.8,0
23.633,-4.44,-5.41,0
23.654,-5.66,-6.39,0
23.673,-6.51,-7.12,0
23.693,-7.0,-8.35,0
23.713,-7.37,-9.08,0
23.733,-8.47,-9.57,0
23.753,-9.08,-9.69,0
23.753,-9.45,-9.81,0
23.774,-9.81,-9.93,0
23.794,-9.81,-9.93,0
23.814,-9.93,-10.06,0
23.834,-10.06,-9.93,0
23.854,-10.06,-9.93,0
23.874,-10.06,-10.06,0
23.894,-10.06,-10.18,0
23.914,-10.18,-10.06,0
23.933,-10.18,-10.18,0
23.954,-10.18,-10.06,0
23.974,-10.18,-10.06,0
23.993,-10.18,-10.06,0
24.014,-10.18,-10.06,0
24.034,-10.18,-10.18,0
24.054,-10.18,-10.06,0
24.074,-10.18,-10.06,0
24.094,-10.18,-10.06,0
24.114,-10.18,-10.06,0
24.134,-10.18,-10.18,0
24.154,-10.18,-10.18,0
24.154,-10.18,-10.18,0
24.175,-10.18,-10.18,0
24.195,-10.18,-10.18,0
24.214,-10.18,-10.18,0
24.234,-10.18,-10.18,0
24.254,-10.3,-10.06,0
24.275,-10.3,-10.18,0
24.294,-10.3,-10.18,1
24.315,-10.3,-10.18,1
24.334,-10.3,-10.18,1
24.354,-10.18,-10.18,1
24.375,-10.18,-10.18,1
24.395,-10.18,-10.18,1
24.415,-10.18,-10.18,1
24.434,-10.3,-10.18,1
24.454,-10.3,-10.18,1
24.475,-10.3,-10.18,1
24.495,-10.3,-10.3,1
24.515,-10.42,-10.3,1
24.535,-10.3,-10.18,1
24.555,-10.3,-10.3,1
24.575,-9.81,-9.69,1
24.595,-9.2,-9.2,1
24.616,-8.71,-8.47,1
24.636,-8.22,-7.49,1
24.655,-7.61,-6.76,1
24.675,-6.76,-6.39,1
24.696,-6.15,-6.15,1
24.716,-5.66,-5.9,1
24.736,-5.29,-5.78,1
24.756,-5.17,-5.66,1
24.775,-4.92,-5.54,1
24.795,-4.68,-5.41,1
24.816,-4.68,-5.29,1
24.836,-4.68,-5.29,1
24.855,-4.8,-5.17,1
24.876,-4.44,-5.17,1
24.896,-4.31,-5.17,1
24.915,-4.19,-5.17,0
24.935,-3.95,-5.17,0
24.955,-3.95,-5.05,0
24.955,-4.07,-5.05,0
24.976,-4.19,-5.05,0
24.996,-4.19,-4.92,0
25.016,-4.07,-4.92,0
25.036,-4.07,-4.92,0
25.056,-4.07,-4.92,0
25.076,-3.95,-4.92,0
25.096,-4.07,-4.92,0
25.116,-4.07,-4.92,0
25.136,-4.19,-5.05,0
25.156,-4.07,-5.05,0
25.176,-3.95,-4.92,0
25.196,-3.95,-4.92,0
25.216,-3.95,-4.92,0
25.236,-3.95,-4.92,0
25.256,-3.95,-4.92,0
25.276,-3.95,-4.92,0
25.296,-4.07,-4.8,0
25.316,-3.95,-4.8,0
25.336,-4.07,-4.8,0
25.356,-4.07,-4.92,0
25.376,-3.95,-5.05,0
25.396,-3.95,-4.92,0
25.417,-3.95,-4.92,0
25.437,-3.95,-4.92,0
25.457,-3.95,-4.8,0
25.477,-3.95,-4.8,0
25.497,-3.95,-4.68,0
25.516,-3.82,-4.68,0
25.536,-3.82,-4.68,0
25.556,-3.82,-4.68,0
25.577,-3.95,-4.8,0
25.597,-4.92,-5.66,0
25.616,-6.02,-6.51,0
25.637,-6.76,-7.37,0
25.657,-7.12,-8.59,0
25.677,-7.73,-9.2,0
25.696,-8.71,-9.57,0
25.716,-9.32,-9.69,0
25.737,-9.57,-9.81,0
25.756,-9.81,-9.93,0
25.777,-9.81,-9.93,0
25.796,-9.93,-9.93,0
25.816,-10.06,-10.06,0
25.836,-10.06,-10.06,0
25.856,-10.06,-10.06,0
25.877,-10.06,-10.06,0
25.896,-10.06,-10.06,0
25.916,-10.18,-10.18,0
25.936,-10.18,-10.18,0
25.957,-10.18,-10.06,0
25.976,-10.18,-10.18,0
25.996,-10.18,-10.06,0
26.017,-10.18,-10.06,0
26.036,-10.18,-10.06,0
26.057,-10.18,-10.06,0
26.076,-10.18,-10.06,0
26.097,-10.18,-10.18,0
26.117,-10.18,-10.18,0
26.137,-10.18,-10.18,0
26.157,-10.18,-10.06,0
26.178,-10.18,-10.18,0
26.198,-10.18,-10.18,0
26.218,-10.3,-10.18,0
26.237,-10.3,-10.18,0
26.257,-10.3,-10.18,0
26.277,-10.3,-10.18,1
26.297,-10.18,-10.18,1
26.318,-10.3,-10.18,1
26.337,-10.18,-10.18,1
26.357,-10.18,-10.18,1
26.377,-10.18,-10.18,1
26.398,-10.18,-10.18,1
26.417,-10.3,-10.18,1
26.437,-10.3,-10.18,1
26.457,-10.3,-10.18,1
26.477,-10.3,-10.18,1
26.497,-10.3,-10.18,1
26.517,-10.3,-10.18,1
26.537,-10.3,-10.18,1
26.557,-10.18,-10.18,1
26.557,-9.69,-9.45,1
26.578,-9.08,-8.96,1
26.598,-8.47,-8.1,1
26.617,-8.1,-7.25,1
26.638,-7.37,-6.63,1
26.657,-6.63,-6.39,1
26.678,-6.15,-6.15,1
26.698,-5.54,-5.9,1
26.721,-5.29,-5.78,1
26.738,-4.92,-5.66,1
26.757,-4.8,-5.54,1
26.778,-4.68,-5.41,1
26.797,-4.56,-5.29,1
26.818,-4.68,-5.17,1
26.837,-4.68,-5.17,1
26.858,-4.44,-5.17,1
26.878,-4.31,-5.17,0
26.898,-4.19,-5.17,0
26.918,-3.95,-5.17,0
26.938,-4.07,-5.17,0
26.957,-4.07,-5.05,0
26.978,-4.19,-5.05,0
26.998,-4.19,-4.92,0
27.018,-4.19,-4.92,0
27.038,-4.07,-4.92,0
27.057,-4.07,-4.92,0
27.078,-4.07,-4.92,0
27.098,-4.07,-4.92,0
27.117,-4.19,-4.92,0
27.138,-4.07,-4.92,0
27.158,-4.07,-4.92,0
27.178,-4.07,-4.92,0
27.197,-4.07,-4.92,0
27.218,-3.95,-4.92,0
27.238,-3.95,-4.8,0
27.257,-3.95,-4.8,0
27.277,-4.07,-4.8,0
27.298,-4.07,-4.8,0
27.318,-4.07,-4.8,0
27.338,-4.07,-4.92,0
27.358,-4.07,-4.92,0
27.378,-3.95,-4.92,0
27.398,-3.95,-4.92,0
27.419,-3.95,-4.8,0
27.438,-3.95,-4.8,0
27.458,-3.95,-4.8,0
27.478,-3.95,-4.8,0
27.498,-3.95,-4.8,0
27.518,-3.82,-4.8,0
27.538,-3.82,-4.8,0
27.558,-3.82,-4.8,0
27.578,-4.07,-5.05,0
27.598,-5.29,-6.02,0
27.618,-6.27,-6.88,0
27.638,-6.76,-7.86,0
27.658,-7.25,-8.96,0
27.678,-7.98,-9.32,0
27.698,-8.83,-9.57,0
27.718,-9.32,-9.69,0
27.738,-9.69,-9.81,0
27.758,-9.81,-9.93,0
27.758,-9.93,-9.93,0
27.778,-9.93,-9.93,0
27.798,-10.06,-9.93,0
27.819,-10.06,-9.93,0
27.839,-10.06,-10.06,0
27.859,-10.18,-10.06,0
27.879,-10.06,-10.06,0
27.898,-10.06,-10.06,0
27.918,-10.18,-10.06,0
27.939,-10.18,-10.06,0
27.959,-10.18,-10.06,0
27.979,-10.18,-10.06,0
27.998,-10.18,-10.06,0
28.019,-10.18,-10.06,0
28.039,-10.18,-10.06,0
28.058,-10.3,-10.18,0
28.078,-10.3,-10.06,0
28.099,-10.3,-10.18,0
28.119,-10.18,-10.18,0
28.139,-10.18,-10.18,0
28.158,-10.18,-10.06,0
28.179,-10.18,-10.18,0
28.199,-10.3,-10.18,0
28.218,-10.3,-10.18,0
28.238,-10.3,-10.18,0
28.26,-10.3,-10.18,1
28.279,-10.18,-10.18,1
28.299,-10.18,-10.18,1
28.319,-10.18,-10.18,1
28.339,-10.18,-10.18,1
28.359,-10.3,-10.18,1
28.379,-10.3,-10.18,1
28.399,-10.3,-10.18,1
28.419,-10.3,-10.18,1
28.439,-10.3,-10.18,1
28.459,-10.3,-10.3,1
28.479,-10.3,-10.3,1
28.499,-10.3,-10.18,1
28.519,-10.3,-10.18,1
28.539,-10.18,-10.06,1
28.559,-9.45,-9.45,1
28.56,-8.83,-8.71,1
28.58,-8.35,-7.86,1
28.6,-7.98,-7.0,1
28.62,-7.12,-6.51,1
28.64,-6.39,-6.27,1
28.66,-6.02,-6.02,1
28.68,-5.41,-5.9,1
28.701,-5.17,-5.66,1
28.72,-5.05,-5.54,1
28.74,-4.8,-5.41,1
28.76,-4.68,-5.29,1
28.78,-4.68,-5.29,1
28.8,-4.56,-5.29,1
28.82,-4.56,-5.17,1
28.84,-4.31,-5.17,1
28.86,-4.31,-5.17,0
28.88,-4.19,-5.17,0
28.9,-3.95,-5.17,0
28.92,-3.95,-5.17,0
28.94,-4.19,-5.05,0
28.96,-4.19,-5.05,0
28.964,-4.07,-5.05,0
28.984,-4.07,-4.92,0
29.008,-4.19,-4.92,0
29.029,-4.07,-4.92,0
29.05,,,
29.064,-4.07,-4.92,0
29.084,-4.07,-4.92,0
29.104,-4.19,-5.05,0
29.124,-4.19,-4.92,0
29.145,-3.95,-4.92,0
29.165,-3.95,-4.92,0
29.184,,,
29.204,-4.07,-4.92,0
29.224,-3.95,-4.92,0
29.245,-3.95,-4.8,0
29.264,-3.95,-4.8,0
29.284,-4.07,-4.8,0
29.304,-4.07,-4.8,0
29.325,-4.07,-4.8,0
29.344,-4.19,-4.8,0
29.365,-4.07,-4.92,0
29.385,-3.95,-4.92,0
29.405,-3.82,-4.8,0
29.426,-3.82,-4.92,0
29.445,,,
29.465,-3.95,-4.8,0
29.485,-3.95,-4.68,0
29.505,-3.82,-4.68,0
29.525,-3.95,-4.8,0
29.545,-3.82,-4.68,0
29.566,-3.7,-4.68,0
29.585,-3.82,-4.8,0
29.605,-4.31,-5.29,0
29.625,-5.54,-6.39,0
29.645,-6.39,-7.12,0
29.665,-6.88,-8.22,0
29.685,-7.37,-9.08,0
29.705,,,
29.725,-8.22,-9.45,0
29.745,-8.96,-9.69,0
29.765,-9.45,-9.81,0
29.77,,,
29.791,-9.69,-9.93,0
29.811,-9.81,-9.93,0
29.831,-9.81,-10.06,0
29.85,-9.93,-10.06,0
29.871,-9.93,-10.06,0
29.891,-10.06,-10.06,0
29.912,-10.06,-10.06,0
29.934,-10.06,-10.06,0
29.955,,,
29.97,-10.18,-10.06,0
29.99,-10.18,-10.18,0
30.01,-10.18,-10.18,0
30.031,-10.18,-10.06,0
30.053,-10.18,-10.06,0
30.078,-10.18,-10.06,0
30.102,-10.18,-10.18,0
30.122,,,
30.131,-10.18,-10.06,0
30.151,,,
30.171,-10.3,-10.06,0
30.172,-10.3,-10.06,0
30.197,-10.18,-10.06,0
30.221,-10.18,-10.18,0
30.245,-10.18,-10.18,0
30.27,-10.3,-10.18,0
30.291,,,
30.293,,,
30.312,-10.18,-10.18,0
30.332,-10.18,-10.18,0
30.352,-10.3,-10.18,0
30.373,-10.3,-10.18,0
30.392,-10.3,-10.18,0
30.414,-10.3,-10.18,1
30.434,,,
30.452,-10.3,-10.18,1
30.472,-10.18,-10.18,1
30.492,-10.18,-10.18,1
30.512,-10.3,-10.18,1
30.532,-10.18,-10.18,1
30.556,-10.18,-10.18,1
30.582,-10.3,-10.18,1
30.602,,,
30.622,-10.3,-10.18,1
30.642,-10.3,-10.3,1
30.662,-10.3,-10.18,1
30.682,-10.3,-10.18,1
30.702,-10.3,-10.18,1
30.724,-10.3,-10.18,1
30.745,,,
30.762,-9.81,-9.81,1
30.782,-9.2,-9.2,1
30.803,-8.71,-8.47,1
30.822,-8.22,-7.61,1
30.842,-7.73,-6.88,1
30.862,-6.88,-6.51,1
30.882,-6.27,-6.27,1
30.902,-5.9,-6.02,1
30.923,-5.29,-5.78,1
30.946,-5.17,-5.78,1
30.966,-4.92,-5.54,1
30.987,-4.8,-5.41,1
31.012,-4.68,-5.29,1
31.031,-4.68,-5.29,1
31.053,-4.68,-5.29,1
31.077,-4.44,-5.17,1
31.098,-4.31,-5.17,1
31.118,,,
31.128,-4.31,-5.17,0
31.148,-4.19,-5.17,0
31.168,-4.07,-5.17,0
31.188,-4.07,-5.05,0
31.208,-4.19,-5.05,0
31.228,-4.19,-5.05,0
31.249,,,
31.268,-4.07,-4.92,0
31.288,-4.19,-4.92,0
31.308,-4.19,-4.92,0
31.328,-4.07,-4.92,0
31.348,-4.07,-4.92,0
31.368,-4.07,-4.92,0
31.388,-4.19,-5.05,0
31.405,-4.07,-4.92,0
31.425,-3.95,-4.92,0
31.446,,,
31.466,-4.07,-4.92,0
31.485,-4.07,-4.92,0
31.505,-3.95,-4.92,0
31.525,-3.95,-4.8,0
31.546,-3.95,-4.8,0
31.566,-4.07,-4.8,0
31.585,-4.07,-4.8,0
31.606,-4.07,-4.92,0
31.625,-4.07,-4.92,0
31.646,,,
31.666,-4.07,-4.92,0
31.686,-3.95,-5.05,0
31.705,-3.82,-4.92,0
31.726,-3.82,-4.92,0
31.746,-3.95,-4.8,0
31.766,-3.95,-4.8,0
31.786,-3.82,-4.8,0
31.806,-3.82,-4.8,0
31.818,-3.82,-4.68,0
31.839,,,
31.858,-3.7,-4.68,0
31.879,-3.82,-4.68,0
31.898,-4.56,-5.54,0
31.918,-5.78,-6.39,0
31.938,-6.51,-7.25,0
31.959,-7.0,-8.47,0
31.979,-7.61,-9.2,0
31.999,-8.47,-9.45,0
32.019,-9.2,-9.69,0
32.039,-9.57,-9.81,0
32.06,-9.69,-9.81,0
32.081,-9.93,-9.93,0
32.105,-9.93,-9.93,0
32.126,-10.06,-9.93,0
32.146,,,
32.158,-10.06,-10.06,0
32.178,-10.06,-10.06,0
32.199,-10.18,-10.06,0
32.22,-10.18,-10.18,0
32.244,-10.18,-10.06,0
32.269,-10.3,-10.18,0
32.294,-10.18,-10.06,0
32.314,,,
32.321,-10.18,-10.06,0
32.34,,,
32.361,-10.18,-10.06,0
32.381,-10.18,-10.06,0
32.401,-10.3,-10.06,0
32.421,-10.18,-10.18,0
32.441,-10.18,-10.18,0
32.462,-10.18,-10.06,0
32.482,,,
32.5,-10.18,-10.18,0
32.521,-10.18,-10.18,0
32.54,-10.18,-10.18,0
32.561,-10.18,-10.18,0
32.581,-10.18,-10.18,0
32.604,-10.3,-10.18,0
32.626,,,
32.647,-10.3,-10.18,0
32.666,-10.18,-10.18,0
32.686,-10.3,-10.18,0
32.707,-10.3,-10.18,1
32.726,-10.3,-10.18,1
32.748,-10.18,-10.18,1
32.772,-10.3,-10.18,1
32.793,,,
32.806,-10.18,-10.18,1
32.826,-10.18,-10.18,1
32.846,-10.18,-10.18,1
32.866,-10.3,-10.18,1
32.892,-10.3,-10.3,1
32.916,-10.3,-10.3,1
32.936,,,
32.946,-10.3,-10.18,1
32.967,-10.3,-10.18,1
32.987,-10.3,-10.3,1
33.01,-10.3,-10.18,1
33.035,-9.69,-9.69,1
33.056,-9.08,-9.08,1
33.08,-8.59,-8.22,1
33.101,-8.22,-7.37,1
33.121,,,
33.136,-7.49,-6.76,1
33.156,-6.63,-6.39,1
33.176,-6.15,-6.15,1
33.196,-5.78,-5.9,1
33.216,-5.41,-5.9,1
33.237,-5.05,-5.66,1
33.256,,,
33.276,-4.92,-5.54,1
33.296,-4.68,-5.41,1
33.317,-4.56,-5.29,1
33.336,-4.68,-5.29,1
33.356,-4.68,-5.17,1
33.376,-4.56,-5.17,1
33.396,-4.31,-5.17,1
33.416,-4.31,-5.17,0
33.436,-4.07,-5.17,0
33.456,-4.07,-5.05,0
33.477,-4.07,-5.05,0
33.496,-4.19,-5.05,0
33.516,,,
33.536,-4.19,-4.92,0
33.556,-4.07,-4.92,0
33.576,-4.19,-4.92,0
33.596,-4.07,-4.92,0
33.616,-4.07,-4.92,0
33.636,-4.07,-4.8,0
33.656,-3.95,-4.92,0
33.676,-4.19,-4.92,0
33.696,-4.19,-4.92,0
33.716,-3.95,-4.92,0
33.736,-3.95,-4.8,0
33.756,-3.95,-4.8,0
33.776,,,
33.796,-3.95,-4.68,0
33.816,-3.82,-4.68,0
33.836,-3.95,-4.68,0
33.842,,,
33.863,-3.95,-4.8,0
33.882,-3.95,-4.8,0
33.902,-3.95,-4.68,0
33.923,-4.07,-4.8,0
33.942,-4.07,-4.8,0
33.963,-3.82,-4.8,0
33.982,-3.7,-4.8,0
34.003,-3.7,-4.68,0
34.023,-3.82,-4.68,0
34.043,-3.82,-4.56,0
34.063,-3.7,-4.56,0
34.083,-3.7,-4.56,0
34.108,-3.7,-4.56,0
34.128,-3.7,-4.56,0
34.149,-3.7,-4.56,0
34.173,-4.92,-5.66,0
34.194,-6.02,-6.51,0
34.215,-6.63,-7.49,0
34.239,-7.12,-8.71,0
34.259,-7.73,-9.32,0
34.28,,,
34.299,-8.71,-9.57,0
34.319,-9.32,-9.81,0
34.339,-9.69,-9.93,0
34.359,-9.81,-9.93,0
34.379,-9.93,-10.06,0
34.399,-10.06,-10.18,0
34.419,-10.06,-10.06,0
34.44,-10.18,-10.18,0
34.464,-10.18,-10.18,0
34.488,-10.18,-10.3,0
34.509,,,
34.519,-10.18,-10.3,0
34.539,-10.18,-10.18,0
34.559,-10.3,-10.3,0
34.583,-10.3,-10.3,0
34.607,-10.18,-10.3,0
34.632,-10.3,-10.3,0
34.656,-10.3,-10.18,0
34.677,,,
34.698,-10.3,-10.3,0
34.718,-10.3,-10.3,0
34.738,-10.3,-10.3,0
34.759,-10.3,-10.3,0
34.777,-10.3,-10.3,0
34.8,-10.3,-10.3,0
34.82,,,
34.837,-10.3,-10.3,0
34.858,-10.3,-10.3,0
34.878,-10.3,-10.3,0
34.898,-10.42,-10.3,0
34.919,-10.42,-10.3,0
34.944,-10.42,-10.3,0
34.968,-10.42,-10.3,1
34.989,,,
34.998,-10.42,-10.3,1
35.018,-10.3,-10.3,1
35.038,-10.3,-10.3,1
35.062,-10.3,-10.3,1
35.087,-10.3,-10.42,1
35.112,-10.3,-10.3,1
35.135,-10.3,-10.3,1
35.157,,,
35.168,-10.42,-10.3,1
35.187,-10.42,-10.42,1
35.208,-10.42,-10.42,1
35.23,-10.42,-10.42,1
35.255,-10.42,-10.42,1
35.28,-10.42,-10.42,1
35.3,,,
35.308,-10.18,-10.18,1
35.328,,,
35.347,-9.57,-9.57,1
35.367,-8.96,-8.96,1
35.388,-8.47,-7.98,1
35.408,-7.98,-7.12,1
35.428,-7.12,-6.63,1
35.447,-6.51,-6.27,1
35.469,-5.9,-6.15,1
35.487,-5.54,-5.78,1
35.508,-5.17,-5.66,1
35.528,-5.05,-5.54,1
35.547,-4.8,-5.41,1
35.568,-4.56,-5.29,1
35.588,,,
35.608,-4.56,-5.17,1
35.628,-4.56,-5.05,1
35.647,-4.56,-5.05,1
35.668,-4.31,-4.92,1
35.688,-4.19,-4.92,0
35.708,-4.07,-4.92,0
35.728,-3.95,-4.92,0
35.748,-3.82,-4.92,0
35.768,-4.07,-4.8,0
35.787,-3.95,-4.8,0
35.807,-3.95,-4.8,0
35.829,-3.95,-4.68,0
35.849,,,
35.868,-3.95,-4.68,0
35.888,-3.95,-4.68,0
35.894,-3.82,-4.68,0
35.915,,,
35.935,-3.82,-4.68,0
35.955,-3.95,-4.68,0
35.975,-3.95,-4.8,0
35.995,-3.82,-4.68,0
36.015,-3.82,-4.68,0
36.035,-3.82,-4.68,0
36.054,-3.82,-4.68,0
36.075,-3.7,-4.56,0
36.095,-3.7,-4.56,0
36.115,-3.82,-4.56,0
36.135,-3.82,-4.56,0
36.156,-3.82,-4.56,0
36.18,-3.82,-4.56,0
36.201,-3.95,-4.68,0
36.222,,,
36.234,-3.82,-4.68,0
36.255,-3.7,-4.68,0
36.275,-3.58,-4.56,0
36.294,-3.7,-4.56,0
36.311,-3.7,-4.56,0
36.332,-3.7,-4.56,0
36.353,,,
36.373,-3.7,-4.44,0
36.392,-3.58,-4.44,0
36.412,-3.58,-4.44,0
36.432,-3.58,-4.56,0
36.452,-4.19,-5.05,0
36.472,-5.41,-6.27,0
36.492,-6.39,-7.12,0
36.511,-6.88,-8.47,0
36.532,-7.37,-9.2,0
36.552,,,
36.572,-8.22,-9.32,0
36.592,-9.08,-9.45,0
36.612,-9.57,-9.45,0
36.632,-9.69,-9.57,0
36.652,-9.81,-9.57,0
36.672,-9.93,-9.57,0
36.691,-10.06,-9.57,0
36.712,-10.06,-9.57,0
36.732,-10.06,-9.57,0
36.753,-10.18,-9.57,0
36.774,-10.18,-9.57,0
36.795,,,
36.813,-10.18,-9.57,0
36.833,-10.3,-9.57,0
36.852,-10.3,-9.45,0
36.872,-10.3,-9.57,0
36.893,-10.3,-9.57,0
36.912,,,
36.932,-10.3,-9.57,0
36.952,-10.3,-9.57,0
36.973,-10.3,-9.57,0
36.992,-10.3,-9.57,0
37.013,-10.3,-9.57,0
37.032,-10.3,-9.57,0
37.053,-10.3,-9.57,0
37.073,,,
37.093,-10.3,-9.57,0
37.112,-10.42,-9.57,0
37.133,-10.3,-9.57,0
37.153,-10.3,-9.57,0
37.173,-10.42,-9.57,0
37.192,-10.42,-9.57,0
37.213,-10.42,-9.57,0
37.233,-10.42,-9.57,0
37.254,-10.42,-9.57,1
37.278,-10.42,-9.57,1
37.298,,,
37.313,-10.3,-9.57,1
37.333,-10.3,-9.57,1
37.352,-10.3,-9.57,1
37.373,-10.3,-9.57,1
37.392,-10.42,-9.57,1
37.413,,,
37.432,-10.42,-9.57,1
37.453,-10.42,-9.57,1
37.472,-10.42,-9.57,1
37.493,-10.42,-9.57,1
37.512,-10.42,-9.57,1
37.529,,,
37.55,-10.42,-9.57,1
37.569,-10.42,-9.57,1
37.59,-10.3,-9.45,1
37.609,-9.81,-8.83,1
37.63,-9.2,-8.22,1
37.649,-8.71,-7.61,1
37.67,-8.22,-6.88,1
37.689,-7.37,-6.63,1
37.71,-6.76,-6.51,1
37.73,-6.27,-6.27,1
37.753,-5.78,-6.27,1
37.774,-5.78,-6.15,1
37.795,-5.66,-6.15,1
37.818,-5.66,-6.15,1
37.839,-5.54,-6.15,1
37.861,-5.54,-6.15,1
37.884,-5.66,-6.02,1
37.905,-5.54,-6.02,1
37.925,,,
37.93,-5.54,-6.02,1
37.95,-5.41,-6.02,0
37.97,-5.41,-6.02,0
37.991,,,
38.01,-5.41,-6.15,0
38.031,-5.29,-6.02,0
38.05,-5.41,-6.02,0
38.071,-5.41,-6.02,0
38.09,-5.54,-6.02,0
38.11,-5.41,-6.02,0
38.131,-5.41,-5.9,0
38.151,-5.41,-5.9,0
38.171,-5.41,-6.02,0
38.191,,,
38.211,-5.29,-6.02,0
38.23,-5.41,-6.02,0
38.25,-5.54,-6.02,0
38.27,-5.41,-6.02,0
38.29,-5.29,-6.02,0
38.31,-5.41,-6.02,0
38.33,-5.41,-6.02,0
38.351,-5.41,-5.9,0
