Time (s),Pressure 1 (kPa),Pressure 2 (kPa),Switch State
0.112,-7.49,-7.86,1
0.132,-7.61,-7.98,1
0.152,-7.49,-7.86,1
0.172,-7.61,-7.86,1
0.192,-7.49,-7.86,1
0.212,-7.49,-7.86,1
0.232,-7.49,-7.86,1
0.252,-7.49,-7.86,1
0.272,-7.49,-7.86,1
0.292,-7.49,-7.86,1
0.312,-7.49,-7.86,1
0.333,-7.49,-7.86,1
0.352,-7.61,-7.86,1
0.372,-7.61,-7.86,1
0.392,-7.61,-7.86,1
0.413,-7.49,-7.86,1
0.432,-7.61,-7.86,1
0.452,-7.49,-7.86,1
0.472,-7.61,-7.86,1
0.492,-7.49,-7.86,1
0.512,-7.49,-7.86,1
0.533,-7.61,-7.86,1
0.553,-7.49,-7.86,1
0.573,-7.49,-7.86,1
0.593,-7.49,-7.86,1
0.613,-7.49,-7.86,1
0.633,-7.61,-7.86,1
0.653,-7.49,-7.86,1
0.673,-7.61,-7.86,1
0.693,-7.49,-7.86,1
0.713,-7.61,-7.86,1
0.733,-7.49,-7.86,1
0.753,-7.49,-7.86,1
0.773,-7.61,-7.86,1
0.793,-7.49,-7.86,1
0.812,-7.49,-7.86,1
0.833,-7.61,-7.86,1
0.853,-7.49,-7.86,1
0.872,-7.61,-7.86,1
0.893,-7.61,-7.86,1
0.912,-7.49,-7.86,1
0.933,-7.49,-7.86,1
0.953,-7.49,-7.86,1
0.973,-7.61,-7.86,1
0.993,-7.49,-7.86,1
1.013,-7.49,-7.86,1
1.033,-7.49,-7.86,1
1.053,-7.49,-7.86,1
1.073,-7.49,-7.86,1
1.093,-7.49,-7.86,1
1.113,-7.61,-7.86,1
1.133,-7.61,-7.86,1
1.153,-7.61,-7.86,1
1.173,-7.49,-7.86,1
1.193,-7.61,-7.86,1
1.212,-7.49,-7.86,1
1.233,-7.49,-7.86,1
1.253,-7.49,-7.86,1
1.273,-7.61,-7.86,1
1.293,-7.49,-7.86,1
1.312,-7.49,-7.86,1
1.312,-7.49,-7.86,1
1.333,-7.61,-7.86,1
1.353,-7.49,-7.86,1
1.373,-7.49,-7.86,1
1.393,-7.49,-7.86,1
1.413,-7.49,-7.86,1
1.433,-7.61,-7.86,1
1.453,-7.49,-7.86,1
1.473,-7.61,-7.86,1
1.493,-7.49,-7.86,1
1.513,-7.61,-7.86,1
1.533,-7.61,-7.86,1
1.553,-7.49,-7.86,1
1.573,-7.61,-7.86,1
1.593,-7.49,-7.86,1
1.613,-7.49,-7.86,1
1.633,-7.49,-7.86,1
1.653,-7.61,-7.86,1
1.673,-7.49,-7.86,1
1.693,-7.49,-7.86,1
1.713,-7.49,-7.86,1
1.734,-7.61,-7.86,1
1.754,-7.49,-7.86,1
1.774,-7.61,-7.86,1
1.793,-7.49,-7.86,1
1.814,-7.61,-7.86,1
1.834,-7.61,-7.86,1
1.854,-7.49,-7.86,1
1.874,-7.61,-7.86,1
1.893,-7.61,-7.86,1
1.913,-7.49,-7.86,1
1.933,-7.61,-7.86,1
1.954,-7.61,-7.86,1
1.973,-7.49,-7.86,1
1.993,-7.49,-7.86,1
2.013,-7.61,-7.86,1
2.033,-7.49,-7.86,1
2.053,-7.61,-7.86,1
2.073,-7.49,-7.86,1
2.093,-7.61,-7.86,1
2.113,-7.61,-7.86,1
2.113,-7.49,-7.86,1
2.134,-7.61,-7.86,1
2.154,-7.49,-7.86,1
2.174,-7.49,-7.86,1
2.194,-7.49,-7.86,1
2.214,-7.49,-7.86,1
2.234,-7.49,-7.86,1
2.253,-7.61,-7.86,1
2.274,-7.61,-7.86,1
2.294,-7.49,-7.86,1
2.314,-7.49,-7.86,1
2.334,-7.49,-7.86,1
2.354,-7.49,-7.86,1
2.375,-7.49,-7.86,1
2.394,-7.61,-7.86,1
2.414,-7.49,-7.86,1
2.434,-7.61,-7.86,1
2.454,-7.61,-7.86,1
2.474,-7.49,-7.86,1
2.494,-7.49,-7.86,1
2.514,-7.49,-7.86,1
2.542,-7.61,-7.86,1
2.554,-7.49,-7.86,1
2.574,-7.49,-7.86,1
2.594,-7.49,-7.86,1
2.615,-7.49,-7.86,1
2.635,-7.49,-7.86,1
2.655,-7.61,-7.86,1
2.675,-7.61,-7.86,1
2.695,-7.61,-7.86,1
2.715,-7.49,-7.86,1
2.734,-7.49,-7.86,1
2.754,-7.61,-7.86,1
2.775,-7.49,-7.86,1
2.794,-7.61,-7.86,1
2.814,-7.61,-7.86,1
2.835,-7.61,-7.86,1
2.855,-7.61,-7.86,1
2.875,-7.61,-7.86,1
2.894,-7.61,-7.86,1
2.915,-7.61,-7.86,1
2.935,-7.61,-7.86,1
2.955,-7.61,-7.86,1
2.976,-7.61,-7.86,1
2.996,-7.49,-7.86,1
3.016,-7.61,-7.86,1
3.036,-7.49,-7.86,1
3.055,-7.49,-7.86,1
3.076,-7.61,-7.86,1
3.096,-7.61,-7.86,1
3.115,-7.49,-7.86,1
3.135,-7.49,-7.86,1
3.155,-7.49,-7.86,1
3.176,-7.49,-7.86,1
3.195,-7.61,-7.86,1
3.216,-7.61,-7.86,1
3.235,-7.61,-7.98,1
3.256,-7.61,-7.86,1
3.276,-7.61,-7.86,1
3.296,-7.49,-7.86,1
3.316,-7.49,-7.86,1
3.336,-7.49,-7.86,1
3.356,-7.49,-7.86,1
3.376,-7.49,-7.86,1
3.396,-7.37,-7.86,1
3.42,-7.25,-7.86,1
3.436,-7.37,-7.86,1
3.456,-7.25,-7.86,1
3.476,-7.37,-7.86,1
3.497,-7.37,-7.86,1
3.516,-7.37,-7.86,1
3.537,-7.49,-7.86,1
3.557,-7.49,-7.86,1
3.576,-7.49,-7.86,1
3.605,-7.49,-7.86,1
3.617,-7.49,-7.86,1
3.636,-7.49,-7.86,1
3.657,-7.49,-7.86,1
3.676,-7.49,-7.86,1
3.696,-7.49,-7.86,1
3.717,-7.49,-7.98,1
3.717,-7.49,-7.98,1
3.737,-7.49,-8.35,1
3.757,-7.61,-8.71,1
3.777,-7.49,-8.83,1
3.797,-7.49,-8.83,1
3.817,-7.61,-8.59,1
3.837,-7.61,-8.47,1
3.857,-7.49,-8.22,1
3.877,-7.61,-8.22,1
3.897,-7.49,-8.1,1
3.917,-7.49,-7.98,1
3.937,-7.49,-7.98,1
3.957,-7.49,-7.98,1
3.977,-7.49,-7.98,1
3.997,-7.49,-7.98,1
4.017,-7.49,-7.98,1
4.042,-7.49,-7.98,1
4.057,-7.49,-7.86,1
4.077,-7.49,-7.86,1
4.097,-7.49,-7.86,1
4.123,-7.61,-7.86,1
4.123,-7.49,-7.86,1
4.144,-7.61,-7.98,1
4.164,-7.49,-7.86,1
4.184,-7.49,-7.86,1
4.203,-7.49,-7.98,1
4.223,-7.49,-7.86,1
4.244,-7.49,-7.86,1
4.264,-7.49,-7.86,1
4.284,-7.49,-7.86,1
4.304,-7.61,-7.86,1
4.324,-7.49,-7.86,1
4.344,-7.61,-7.86,1
4.365,-7.61,-7.98,1
4.384,-7.49,-7.86,1
4.403,-7.61,-7.86,1
4.424,-7.49,-7.86,1
4.444,-7.61,-7.98,1
4.464,-7.61,-7.86,1
4.484,-7.49,-7.86,1
4.504,-7.49,-7.98,1
4.524,-7.49,-7.86,1
4.524,-7.61,-7.86,1
4.545,-7.49,-7.86,1
4.565,-7.49,-7.86,1
4.585,-7.49,-7.86,1
4.605,-7.25,-7.86,1
4.625,-6.76,-7.61,1
4.645,-6.15,-7.12,1
4.665,-5.54,-6.51,1
4.684,-5.29,-6.27,1
4.705,-5.05,-5.9,1
4.725,-5.05,-5.66,1
4.745,-4.68,-5.54,1
4.765,-4.44,-5.41,1
4.785,-4.44,-5.29,1
4.805,-4.31,-5.17,1
4.825,-4.07,-5.17,1
4.845,-4.19,-5.05,1
4.865,-4.07,-5.05,1
4.885,-4.07,-5.05,1
4.905,-4.07,-4.92,1
4.925,-4.07,-4.92,1
4.946,-4.31,-5.05,0
4.965,-4.19,-4.92,0
4.985,-3.95,-4.92,0
5.006,-3.95,-4.92,0
5.026,-3.7,-4.92,0
5.046,-3.7,-4.8,0
5.066,-3.7,-4.8,0
5.085,-3.82,-4.8,0
5.106,-3.95,-4.8,0
5.125,-3.95,-4.8,0
5.145,-3.95,-4.8,0
5.166,-3.82,-4.8,0
5.185,-3.82,-4.68,0
5.206,-3.82,-4.8,0
5.225,-3.82,-4.8,0
5.246,-3.82,-4.8,0
5.265,-3.82,-4.68,0
5.285,-3.95,-4.68,0
5.306,-3.82,-4.68,0
5.326,-3.82,-4.68,0
5.347,-3.7,-4.68,0
5.366,-3.7,-4.68,0
5.386,-3.7,-4.68,0
5.407,-3.82,-4.68,0
5.426,-3.7,-4.68,0
5.447,-3.82,-4.8,0
5.466,-3.82,-4.8,0
5.487,-3.82,-4.8,0
5.506,-3.82,-4.68,0
5.527,-3.82,-4.68,0
5.546,-3.7,-4.68,0
5.566,-3.7,-4.68,0
5.587,-3.7,-4.56,0
5.607,-3.7,-4.56,0
5.627,-3.58,-4.56,0
5.646,-3.58,-4.56,0
5.666,-3.58,-4.68,0
5.687,-4.31,-5.41,0
5.707,-5.54,-6.39,0
5.726,-6.39,-7.12,0
5.746,-6.88,-8.35,0
5.766,-7.49,-9.08,0
5.786,-8.35,-9.45,0
5.807,-8.96,-9.57,0
5.827,-9.32,-9.69,0
5.847,-9.45,-9.81,0
5.866,-9.69,-9.81,0
5.887,-9.69,-9.81,0
5.907,-9.81,-9.93,0
5.928,-9.93,-9.93,0
5.947,-9.81,-9.93,0
5.966,-9.93,-9.93,0
5.987,-10.06,-10.06,0
6.007,-10.06,-10.06,0
6.026,-10.06,-10.06,0
6.046,-10.06,-10.06,0
6.066,-10.06,-10.06,0
6.087,-10.06,-10.06,0
6.106,-10.06,-9.93,0
6.127,-10.06,-10.06,0
6.147,-10.18,-10.06,0
6.167,-10.18,-10.06,0
6.187,-10.18,-10.06,0
6.207,-10.06,-10.06,0
6.227,-10.18,-10.18,0
6.247,-10.18,-10.18,0
6.267,-10.18,-10.18,0
6.287,-10.18,-10.18,0
6.307,-10.18,-10.18,0
6.327,-10.3,-10.18,0
6.347,-10.18,-10.18,0
6.367,-10.3,-10.18,0
6.387,-10.18,-10.18,0
6.407,-10.18,-10.18,0
6.427,-10.18,-10.3,1
6.447,-10.3,-10.18,1
6.467,-10.3,-10.3,1
6.488,-10.3,-10.3,1
6.507,-10.3,-10.3,1
6.528,-10.3,-10.18,1
6.548,-10.3,-10.3,1
6.568,-10.3,-10.3,1
6.589,-10.42,-10.3,1
6.609,-10.42,-10.3,1
6.628,-10.3,-10.3,1
6.649,-10.3,-10.3,1
6.668,-10.18,-10.3,1
6.688,-10.18,-10.3,1
6.708,-10.06,-10.06,1
6.728,-9.45,-9.45,1
6.749,-8.96,-8.83,1
6.768,-8.59,-8.1,1
6.789,-8.1,-7.25,1
6.808,-7.37,-6.63,1
6.828,-6.76,-6.27,1
6.848,-6.15,-6.02,1
6.869,-5.66,-5.9,1
6.888,-5.29,-5.66,1
6.908,-5.17,-5.54,1
6.928,-4.92,-5.41,1
6.949,-4.68,-5.41,1
6.969,-4.56,-5.29,1
6.989,-4.44,-5.17,1
7.009,-4.19,-5.17,1
7.029,-4.19,-5.17,1
7.048,-4.19,-5.05,1
7.069,-4.31,-5.05,0
7.089,-4.44,-5.05,0
7.108,-4.19,-5.05,0
7.128,-4.07,-5.05,0
7.149,-3.95,-5.05,0
7.169,-3.7,-4.92,0
7.189,-3.7,-4.92,0
7.209,-3.82,-4.92,0
7.229,-3.95,-4.8,0
7.248,-4.07,-4.92,0
7.269,-3.95,-4.92,0
7.289,-3.95,-4.8,0
7.309,-3.95,-4.92,0
7.329,-3.82,-4.92,0
7.329,-3.7,-4.92,0
7.349,-3.82,-4.92,0
7.369,-3.95,-4.8,0
7.389,-3.95,-4.8,0
7.409,-3.82,-4.8,0
7.429,-3.7,-4.68,0
7.449,-3.7,-4.68,0
7.469,-3.7,-4.68,0
7.489,-3.7,-4.68,0
7.509,-3.7,-4.68,0
7.529,-3.82,-4.8,0
7.549,-3.95,-4.8,0
7.57,-3.82,-4.8,0
7.589,-3.7,-4.8,0
7.609,-3.82,-4.68,0
7.629,-3.7,-4.68,0
7.649,-3.58,-4.56,0
7.669,-3.58,-4.56,0
7.689,-3.58,-4.56,0
7.71,-3.7,-4.56,0
7.729,-3.7,-4.56,0
7.75,-3.58,-4.56,0
7.77,-3.58,-4.68,0
7.79,-4.56,-5.66,0
7.809,-5.66,-6.51,0
7.83,-6.51,-7.37,0
7.849,-7.0,-8.59,0
7.87,-7.73,-9.2,0
7.89,-8.47,-9.57,0
7.91,-8.96,-9.69,0
7.929,-9.45,-9.81,0
7.949,-9.69,-9.93,0
7.97,-9.81,-9.93,0
7.99,-9.81,-10.06,0
8.01,-9.93,-10.06,0
8.029,-10.06,-10.06,0
8.049,-10.06,-10.06,0
8.07,-10.06,-10.06,0
8.089,-10.18,-10.18,0
8.109,-10.18,-10.18,0
8.13,-10.18,-10.18,0
8.151,-10.18,-10.18,0
8.171,-10.3,-10.18,0
8.191,-10.18,-10.18,0
8.211,-10.18,-10.18,0
8.231,-10.18,-10.06,0
8.251,-10.18,-10.18,0
8.271,-10.18,-10.18,0
8.29,-10.18,-10.18,0
8.311,-10.18,-10.18,0
8.331,-10.3,-10.18,0
8.351,-10.18,-10.18,0
8.37,-10.18,-10.18,0
8.391,-10.3,-10.18,0
8.41,-10.18,-10.18,0
8.431,-10.3,-10.18,0
8.451,-10.3,-10.18,0
8.471,-10.3,-10.18,0
8.491,-10.18,-10.18,0
8.51,-10.18,-10.18,1
8.531,-10.18,-10.18,1
8.552,-10.3,-10.3,1
8.572,-10.18,-10.3,1
8.591,-10.3,-10.3,1
8.611,-10.3,-10.3,1
8.631,-10.3,-10.3,1
8.652,-10.3,-10.3,1
8.672,-10.3,-10.3,1
8.691,-10.42,-10.3,1
8.711,-10.42,-10.3,1
8.731,-10.3,-10.3,1
8.751,-10.3,-10.3,1
8.772,-10.3,-10.3,1
8.791,-10.3,-10.3,1
8.811,-9.81,-9.69,1
8.831,-9.2,-9.2,1
8.852,-8.71,-8.47,1
8.871,-8.35,-7.49,1
8.892,-7.73,-6.88,1
8.912,-7.0,-6.51,1
8.932,-6.39,-6.15,1
8.952,-5.78,-6.02,1
8.972,-5.41,-5.78,1
8.992,-5.17,-5.54,1
9.013,-4.92,-5.41,1
9.033,-4.8,-5.29,1
9.052,-4.56,-5.29,1
9.073,-4.44,-5.17,1
9.092,-4.31,-5.17,1
9.113,-4.19,-5.05,1
9.133,-4.19,-5.05,1
9.153,-4.31,-5.05,0
9.173,-4.31,-5.05,0
9.192,-4.19,-5.05,0
9.212,-3.95,-4.92,0
9.232,-3.95,-4.92,0
9.252,-3.82,-4.92,0
9.273,-3.7,-4.8,0
9.292,-3.7,-4.8,0
9.313,-3.82,-4.8,0
9.333,-3.95,-4.8,0
9.333,-3.95,-4.8,0
9.353,-3.82,-4.8,0
9.373,-3.95,-4.8,0
9.393,-3.82,-4.8,0
9.413,-3.7,-4.92,0
9.434,-3.7,-4.8,0
9.453,-3.82,-4.8,0
9.473,-3.95,-4.8,0
9.493,-3.95,-4.8,0
9.514,-3.7,-4.8,0
9.533,-3.7,-4.68,0
9.553,-3.82,-4.68,0
9.573,-3.7,-4.68,0
9.593,-3.7,-4.68,0
9.613,-3.82,-4.68,0
9.633,-3.82,-4.8,0
9.653,-3.82,-4.8,0
9.673,-3.7,-4.8,0
9.694,-3.82,-4.8,0
9.713,-3.82,-4.68,0
9.733,-3.7,-4.68,0
9.753,-3.58,-4.68,0
9.774,-3.7,-4.56,0
9.793,-3.7,-4.56,0
9.813,-3.58,-4.56,0
9.834,-3.58,-4.56,0
9.854,-3.7,-4.68,0
9.874,-4.8,-5.78,0
9.894,-5.9,-6.63,0
9.914,-6.63,-7.73,0
9.934,-7.25,-8.83,0
9.954,-8.1,-9.32,0
9.974,-8.71,-9.57,0
9.994,-9.32,-9.69,0
10.014,-9.57,-9.81,0
10.034,-9.69,-9.93,0
10.054,-9.81,-9.93,0
10.074,-9.93,-9.93,0
10.093,-10.06,-10.06,0
10.114,-10.06,-10.06,0
10.134,-10.06,-10.18,0
10.134,-10.18,-10.18,0
10.154,-10.18,-10.18,0
10.174,-10.18,-10.06,0
10.194,-10.18,-10.18,0
10.215,-10.18,-10.18,0
10.235,-10.18,-10.18,0
10.255,-10.3,-10.18,0
10.274,-10.18,-10.18,0
10.295,-10.18,-10.18,0
10.315,-10.18,-10.18,0
10.334,-10.18,-10.18,0
10.354,-10.3,-10.18,0
10.375,-10.18,-10.18,0
10.394,-10.18,-10.18,0
10.414,-10.18,-10.18,0
10.434,-10.3,-10.18,0
10.455,-10.3,-10.18,0
10.475,-10.3,-10.18,0
10.494,-10.3,-10.18,0
10.515,-10.3,-10.18,0
10.534,-10.3,-10.3,1
10.555,-10.3,-10.3,1
10.575,-10.3,-10.3,1
10.595,-10.3,-10.3,1
10.615,-10.3,-10.18,1
10.635,-10.3,-10.3,1
10.655,-10.3,-10.3,1
10.675,-10.3,-10.3,1
10.695,-10.3,-10.3,1
10.715,-10.3,-10.3,1
10.735,-10.3,-10.3,1
10.755,-10.3,-10.3,1
10.775,-10.3,-10.3,1
10.795,-10.3,-10.3,1
10.815,-10.18,-10.06,1
10.835,-9.57,-9.45,1
10.855,-8.96,-8.83,1
10.875,-8.47,-7.98,1
10.895,-7.98,-7.12,1
10.915,-7.25,-6.63,1
10.934,-6.51,-6.27,1
10.955,-5.78,-6.02,1
10.974,-5.41,-5.9,1
10.995,-5.17,-5.66,1
11.015,-4.92,-5.54,1
11.035,-4.8,-5.29,1
11.055,-4.56,-5.29,1
11.075,-4.44,-5.17,1
11.095,-4.31,-5.17,1
11.115,-4.19,-5.05,1
11.135,-4.19,-5.05,1
11.155,-4.19,-5.05,0
11.175,-4.31,-5.05,0
11.196,-4.07,-4.92,0
11.215,-3.95,-4.92,0
11.235,-3.95,-4.92,0
11.255,-3.82,-4.92,0
11.275,-3.7,-4.8,0
11.295,-3.82,-4.8,0
11.315,-3.95,-4.8,0
11.335,-3.95,-4.8,0
11.335,-3.82,-4.68,0
11.356,-3.82,-4.8,0
11.376,-3.82,-4.8,0
11.396,-3.82,-4.8,0
11.415,-3.7,-4.8,0
11.435,-3.82,-4.8,0
11.455,-3.95,-4.8,0
11.475,-3.95,-4.68,0
11.495,-3.7,-4.68,0
11.516,-3.82,-4.68,0
11.535,-3.82,-4.68,0
11.555,-3.7,-4.68,0
11.575,-3.7,-4.68,0
11.595,-3.82,-4.8,0
11.615,-3.95,-4.8,0
11.636,-3.82,-4.8,0
11.655,-3.7,-4.8,0
11.675,-3.7,-4.68,0
11.695,-3.7,-4.68,0
11.715,-3.7,-4.68,0
11.735,-3.7,-4.56,0
11.735,-3.7,-4.56,0
11.755,-3.7,-4.56,0
11.775,-3.58,-4.56,0
11.795,-3.7,-4.56,0
11.815,-4.07,-5.05,0
11.835,-5.29,-6.15,0
11.855,-6.27,-7.0,0
11.875,-6.88,-8.35,0
11.895,-7.37,-9.08,0
11.915,-8.35,-9.45,0
11.935,-8.83,-9.69,0
11.955,-9.45,-9.81,0
11.975,-9.57,-9.93,0
11.995,-9.69,-9.93,0
12.015,-9.81,-9.93,0
12.035,-9.93,-10.06,0
12.055,-10.06,-10.06,0
12.075,-10.06,-10.06,0
12.095,-10.06,-10.06,0
12.115,-10.18,-10.18,0
12.135,-10.18,-10.18,0
12.135,-10.18,-10.18,0
12.156,-10.18,-10.18,0
12.176,-10.18,-10.18,0
12.196,-10.18,-10.18,0
12.216,-10.18,-10.18,0
12.236,-10.18,-10.18,0
12.256,-10.3,-10.18,0
12.276,-10.18,-10.18,0
12.296,-10.18,-10.18,0
12.316,-10.3,-10.3,0
12.336,-10.18,-10.18,0
12.356,-10.18,-10.3,0
12.376,-10.3,-10.3,0
12.396,-10.3,-10.18,0
12.416,-10.3,-10.3,0
12.436,-10.3,-10.18,0
12.458,-10.3,-10.18,0
12.476,-10.3,-10.18,0
12.496,-10.3,-10.3,1
12.516,-10.3,-10.3,1
12.536,-10.3,-10.3,1
12.536,-10.18,-10.3,1
12.556,-10.3,-10.18,1
12.576,-10.3,-10.3,1
12.605,-10.3,-10.3,1
12.616,-10.3,-10.3,1
12.636,-10.42,-10.3,1
12.657,-10.42,-10.3,1
12.677,-10.3,-10.3,1
12.696,-10.3,-10.3,1
12.716,-10.3,-10.3,1
12.736,-10.3,-10.3,1
12.756,-9.93,-9.81,1
12.777,-9.32,-9.32,1
12.797,-8.71,-8.59,1
12.816,-8.35,-7.73,1
12.836,-7.73,-6.88,1
12.856,-7.0,-6.51,1
12.877,-6.39,-6.15,1
12.896,-5.66,-6.02,1
12.916,-5.41,-5.78,1
12.936,-5.17,-5.54,1
12.956,-4.8,-5.41,1
12.977,-4.68,-5.29,1
12.997,-4.56,-5.29,1
13.017,-4.44,-5.17,1
13.037,-4.44,-5.17,1
13.057,-4.19,-5.17,1
13.077,-4.19,-5.05,1
13.097,-4.31,-5.05,0
13.117,-4.19,-5.05,0
13.142,-4.07,-5.05,0
13.157,-3.95,-4.92,0
13.176,-3.95,-4.92,0
13.197,-3.82,-4.8,0
13.223,-3.82,-4.8,0
13.237,-3.95,-4.8,0
13.257,-3.95,-4.8,0
13.276,-3.95,-4.8,0
13.297,-3.95,-4.8,0
13.317,-3.82,-4.8,0
13.337,-3.95,-4.8,0
13.337,-3.82,-4.8,0
13.357,-3.82,-4.8,0
13.377,-3.95,-4.68,0
13.397,-3.95,-4.68,0
13.417,-3.82,-4.68,0
13.437,-3.7,-4.68,0
13.458,-3.82,-4.68,0
13.478,-3.82,-4.56,0
13.497,-3.7,-4.68,0
13.517,-3.82,-4.68,0
13.537,-3.95,-4.68,0
13.557,-3.82,-4.8,0
13.577,-3.95,-4.68,0
13.597,-3.7,-4.8,0
13.617,-3.82,-4.68,0
13.637,-3.7,-4.68,0
13.657,-3.58,-4.68,0
13.677,-3.58,-4.56,0
13.697,-3.58,-4.56,0
13.717,-3.58,-4.56,0
13.737,-3.58,-4.56,0
13.758,-3.58,-4.68,0
13.778,-4.44,-5.54,0
13.797,-5.54,-6.39,0
13.817,-6.51,-7.37,0
13.838,-7.0,-8.71,0
13.858,-7.73,-9.32,0
13.877,-8.59,-9.57,0
13.898,-9.08,-9.81,0
13.918,-9.45,-9.93,0
13.938,-9.57,-9.93,0
13.958,-9.69,-9.93,0
13.977,-9.93,-10.06,0
13.997,-10.06,-10.06,0
14.017,-10.18,-10.06,0
14.037,-10.06,-10.06,0
14.058,-10.18,-10.18,0
14.077,-10.18,-10.18,0
14.098,-10.18,-10.18,0
14.117,-10.18,-10.18,0
14.137,-10.3,-10.18,0
14.137,-10.3,-10.18,0
14.158,-10.3,-10.18,0
14.178,-10.18,-10.18,0
14.197,-10.3,-10.18,0
14.218,-10.3,-10.18,0
14.238,-10.18,-10.18,0
14.258,-10.3,-10.18,0
14.278,-10.3,-10.18,0
14.298,-10.3,-10.3,0
14.318,-10.3,-10.18,0
14.338,-10.3,-10.3,0
14.358,-10.18,-10.18,0
14.378,-10.3,-10.18,0
14.398,-10.3,-10.18,0
14.417,-10.3,-10.3,0
14.438,-10.3,-10.3,0
14.458,-10.3,-10.3,1
14.478,-10.3,-10.3,1
14.498,-10.18,-10.3,1
14.518,-10.18,-10.3,1
14.538,-10.3,-10.3,1
14.558,-10.3,-10.3,1
14.579,-10.3,-10.3,1
14.599,-10.3,-10.3,1
14.619,-10.3,-10.3,1
14.639,-10.3,-10.3,1
14.659,-10.3,-10.3,1
14.679,-10.3,-10.3,1
14.698,-10.3,-10.3,1
14.719,-10.3,-10.18,1
14.738,-9.69,-9.69,1
14.759,-9.2,-9.08,1
14.778,-8.59,-8.22,1
14.798,-8.22,-7.37,1
14.818,-7.49,-6.76,1
14.839,-6.76,-6.39,1
14.859,-6.02,-6.15,1
14.878,-5.54,-5.9,1
14.898,-5.29,-5.66,1
14.918,-5.05,-5.54,1
14.938,-4.8,-5.29,1
14.959,-4.68,-5.29,1
14.98,-4.56,-5.17,1
14.999,-4.44,-5.17,1
15.019,-4.31,-5.05,1
15.039,-4.19,-5.05,1
15.059,-4.31,-4.92,0
15.079,-4.31,-5.05,0
15.099,-4.07,-5.05,0
15.119,-4.07,-5.05,0
15.139,-3.95,-4.92,0
15.159,-3.95,-4.92,0
15.179,-3.82,-4.8,0
15.199,-3.82,-4.8,0
15.219,-3.95,-4.8,0
15.239,-3.95,-4.8,0
15.259,-3.95,-4.8,0
15.279,-3.82,-4.8,0
15.299,-3.95,-4.8,0
15.319,-3.95,-4.8,0
15.339,-3.82,-4.8,0
15.359,-3.82,-4.8,0
15.379,-3.95,-4.8,0
15.399,-3.82,-4.68,0
15.42,-3.82,-4.68,0
15.44,-3.82,-4.68,0
15.46,-3.82,-4.68,0
15.48,-3.7,-4.68,0
15.499,-3.7,-4.68,0
15.519,-3.82,-4.68,0
15.539,-3.95,-4.68,0
15.56,-3.7,-4.8,0
15.579,-3.82,-4.8,0
15.599,-3.7,-4.68,0
15.619,-3.82,-4.68,0
15.639,-3.7,-4.56,0
15.66,-3.58,-4.56,0
15.68,-3.58,-4.56,0
15.699,-3.58,-4.56,0
15.72,-3.58,-4.56,0
15.739,-3.58,-4.56,0
15.739,-3.7,-4.68,0
15.76,-4.92,-5.78,0
15.78,-5.9,-6.76,0
15.799,-6.63,-7.86,0
15.819,-7.25,-8.83,0
15.84,-8.1,-9.45,0
15.86,-8.83,-9.57,0
15.88,-9.2,-9.81,0
15.9,-9.57,-9.93,0
15.92,-9.69,-9.93,0
15.939,-9.81,-10.06,0
15.96,-9.93,-10.06,0
15.98,-10.06,-10.06,0
16.0,-10.06,-10.06,0
16.02,-10.06,-10.18,0
16.039,-10.18,-10.18,0
16.059,-10.18,-10.18,0
16.08,-10.18,-10.18,0
16.1,-10.3,-10.18,0
16.121,-10.3,-10.18,0
16.14,-10.3,-10.18,0
16.14,-10.3,-10.18,0
16.16,-10.18,-10.18,0
16.181,-10.3,-10.18,0
16.201,-10.3,-10.18,0
16.221,-10.3,-10.18,0
16.24,-10.3,-10.18,0
16.261,-10.3,-10.18,0
16.281,-10.18,-10.3,0
16.3,-10.18,-10.18,0
16.325,-10.3,-10.3,0
16.34,-10.3,-10.18,0
16.361,-10.3,-10.18,0
16.381,-10.3,-10.3,0
16.401,-10.3,-10.3,0
16.42,-10.3,-10.3,1
16.44,-10.3,-10.3,1
16.46,-10.3,-10.3,1
16.481,-10.18,-10.3,1
16.501,-10.18,-10.3,1
16.521,-10.3,-10.3,1
16.54,-10.3,-10.3,1
16.54,-10.3,-10.3,1
16.561,-10.3,-10.3,1
16.581,-10.42,-10.3,1
16.601,-10.3,-10.3,1
16.621,-10.3,-10.3,1
16.641,-10.42,-10.3,1
16.661,-10.3,-10.3,1
16.681,-10.18,-10.06,1
16.701,-9.45,-9.45,1
16.721,-8.83,-8.71,1
16.741,-8.47,-7.73,1
16.761,-7.86,-7.0,1
16.781,-7.12,-6.51,1
16.801,-6.51,-6.15,1
16.821,-5.9,-6.02,1
16.841,-5.54,-5.78,1
16.861,-5.29,-5.66,1
16.881,-4.8,-5.41,1
16.901,-4.68,-5.29,1
16.921,-4.56,-5.29,1
16.941,-4.56,-5.17,1
16.962,-4.44,-5.05,1
16.982,-4.31,-5.05,1
17.001,-4.31,-5.05,1
17.021,-4.31,-5.05,0
17.041,-4.07,-5.05,0
17.061,-3.95,-5.05,0
17.081,-3.95,-4.92,0
17.102,-3.95,-4.92,0
17.121,-3.95,-4.92,0
17.141,-3.82,-4.8,0
17.161,-3.95,-4.8,0
17.183,-3.95,-4.8,0
17.202,-3.82,-4.8,0
17.221,-3.82,-4.8,0
17.242,-3.95,-4.8,0
17.261,-3.95,-4.8,0
17.282,-3.95,-4.8,0
17.301,-3.95,-4.8,0
17.321,-3.95,-4.8,0
17.341,-3.7,-4.68,0
17.341,-3.82,-4.8,0
17.362,-3.7,-4.68,0
17.382,-3.82,-4.68,0
17.402,-3.82,-4.68,0
17.422,-3.7,-4.68,0
17.442,-3.82,-4.68,0
17.461,-3.7,-4.8,0
17.482,-3.82,-4.8,0
17.502,-3.82,-4.8,0
17.522,-3.82,-4.8,0
17.543,-3.82,-4.68,0
17.562,-3.82,-4.68,0
17.582,-3.7,-4.56,0
17.602,-3.7,-4.56,0
17.622,-3.58,-4.56,0
17.643,-3.58,-4.56,0
17.662,-3.7,-4.56,0
17.681,-3.7,-4.56,0
17.702,-4.31,-5.29,0
17.721,-5.54,-6.27,0
17.742,-6.39,-7.12,0
17.762,-7.0,-8.47,0
17.782,-7.61,-9.08,0
17.802,-8.59,-9.45,0
17.823,-9.08,-9.69,0
17.842,-9.45,-9.81,0
17.863,-9.69,-9.93,0
17.882,-9.81,-9.93,0
17.908,-9.93,-10.06,0
17.922,-10.06,-10.06,0
17.942,-10.18,-10.06,0
17.962,-10.06,-10.06,0
17.982,-10.18,-10.18,0
18.008,-10.18,-10.18,0
18.022,-10.18,-10.18,0
18.042,-10.18,-10.18,0
18.062,-10.18,-10.18,0
18.082,-10.3,-10.18,0
18.102,-10.18,-10.18,0
18.122,-10.18,-10.18,0
18.143,-10.3,-10.18,0
18.163,-10.18,-10.18,0
18.184,-10.18,-10.18,0
18.203,-10.3,-10.18,0
18.223,-10.3,-10.18,0
18.243,-10.18,-10.18,0
18.263,-10.18,-10.18,0
18.283,-10.18,-10.18,0
18.303,-10.3,-10.18,0
18.324,-10.3,-10.18,0
18.343,-10.3,-10.18,0
18.363,-10.3,-10.18,0
18.383,-10.18,-10.3,0
18.403,-10.3,-10.18,1
18.423,-10.18,-10.3,1
18.443,-10.18,-10.18,1
18.463,-10.18,-10.18,1
18.483,-10.3,-10.3,1
18.503,-10.3,-10.3,1
18.523,-10.3,-10.3,1
18.543,-10.3,-10.3,1
18.564,-10.3,-10.3,1
18.585,-10.42,-10.3,1
18.604,-10.42,-10.3,1
18.624,-10.42,-10.3,1
18.644,-10.42,-10.3,1
18.663,-10.3,-10.3,1
18.684,-9.81,-9.69,1
18.704,-9.2,-9.2,1
18.723,-8.71,-8.35,1
18.743,-8.22,-7.37,1
18.764,-7.61,-6.76,1
18.783,-6.76,-6.39,1
18.804,-6.15,-6.15,1
18.823,-5.66,-5.9,1
18.844,-5.29,-5.78,1
18.864,-5.05,-5.54,1
18.884,-4.68,-5.41,1
18.904,-4.56,-5.41,1
18.924,-4.56,-5.29,1
18.944,-4.56,-5.17,1
18.944,-4.44,-5.17,1
18.964,-4.31,-5.05,1
18.985,-4.31,-5.05,0
19.005,-4.31,-5.05,0
19.025,-3.95,-5.05,0
19.044,-3.95,-5.05,0
19.064,-3.95,-4.92,0
19.085,-3.95,-4.92,0
19.104,-3.82,-4.92,0
19.125,-3.95,-4.8,0
19.145,-3.95,-4.8,0
19.165,-3.82,-4.8,0
19.185,-3.82,-4.8,0
19.205,-3.82,-4.8,0
19.224,-3.95,-4.8,0
19.244,-3.95,-4.8,0
19.264,-3.82,-4.8,0
19.285,-3.95,-4.8,0
19.305,-3.95,-4.8,0
19.325,-3.7,-4.68,0
19.344,-3.82,-4.68,0
19.344,-3.82,-4.8,0
19.365,-3.82,-4.68,0
19.385,-3.82,-4.68,0
19.405,-3.82,-4.68,0
19.424,-3.82,-4.68,0
19.445,-3.95,-4.68,0
19.465,-3.82,-4.8,0
19.485,-3.82,-4.8,0
19.505,-3.82,-4.68,0
19.525,-3.82,-4.8,0
19.545,-3.82,-4.68,0
19.565,-3.7,-4.68,0
19.585,-3.58,-4.68,0
19.605,-3.7,-4.56,0
19.625,-3.58,-4.56,0
19.644,-3.7,-4.56,0
19.664,-3.7,-4.68,0
19.685,-4.8,-5.66,0
19.705,-5.9,-6.76,0
19.726,-6.76,-7.73,0
19.746,-7.25,-8.83,0
19.766,-7.98,-9.32,0
19.786,-8.83,-9.57,0
19.806,-9.2,-9.81,0
19.826,-9.57,-9.81,0
19.847,-9.69,-9.93,0
19.867,-9.81,-9.93,0
19.887,-9.93,-10.06,0
19.906,-10.06,-10.06,0
19.926,-10.06,-10.06,0
19.946,-10.06,-10.06,0
19.966,-10.06,-10.18,0
19.987,-10.18,-10.18,0
20.006,-10.18,-10.18,0
20.026,-10.3,-10.18,0
20.046,-10.3,-10.18,0
20.066,-10.3,-10.18,0
20.087,-10.18,-10.18,0
20.106,-10.18,-10.18,0
20.126,-10.18,-10.18,0
20.146,-10.18,-10.18,0
20.166,-10.18,-10.18,0
20.186,-10.3,-10.18,0
20.207,-10.18,-10.3,0
20.227,-10.18,-10.18,0
20.246,-10.18,-10.3,0
20.266,-10.3,-10.18,0
20.287,-10.3,-10.18,0
20.307,-10.3,-10.18,0
20.327,-10.3,-10.18,0
20.347,-10.3,-10.3,0
20.367,-10.3,-10.3,1
20.387,-10.18,-10.3,1
20.406,-10.3,-10.18,1
20.426,-10.3,-10.18,1
20.447,-10.3,-10.3,1
20.467,-10.3,-10.3,1
20.486,-10.3,-10.3,1
20.507,-10.42,-10.3,1
20.527,-10.3,-10.3,1
20.555,-10.3,-10.3,1
20.555,-10.42,-10.3,1
20.576,-10.42,-10.3,1
20.596,-10.3,-10.3,1
20.616,-10.3,-10.3,1
20.636,-10.18,-10.18,1
20.655,-9.57,-9.57,1
20.676,-8.96,-8.83,1
20.695,-8.47,-7.98,1
20.716,-7.98,-7.12,1
20.735,-7.25,-6.63,1
20.755,-6.51,-6.27,1
20.776,-6.02,-6.15,1
20.796,-5.54,-5.9,1
20.816,-5.29,-5.66,1
20.835,-4.8,-5.54,1
20.855,-4.68,-5.41,1
20.876,-4.56,-5.29,1
20.896,-4.56,-5.29,1
20.915,-4.56,-5.17,1
20.935,-4.44,-5.17,1
20.956,-4.44,-5.05,1
20.956,-4.31,-5.05,0
20.977,-3.95,-5.05,0
20.997,-3.95,-5.05,0
21.017,-3.95,-5.05,0
21.036,-4.07,-4.92,0
21.056,-3.95,-4.92,0
21.077,-3.95,-4.8,0
21.096,-3.95,-4.8,0
21.117,-3.82,-4.8,0
21.136,-3.82,-4.8,0
21.156,-3.82,-4.8,0
21.177,-3.95,-4.8,0
21.197,-3.95,-4.8,0
21.217,-3.95,-4.92,0
21.236,-4.07,-4.8,0
21.256,-3.95,-4.8,0
21.277,-3.7,-4.8,0
21.297,-3.82,-4.68,0
21.316,-3.95,-4.68,0
21.336,-3.82,-4.68,0
21.357,-3.95,-4.68,0
21.377,-3.95,-4.68,0
21.397,-3.95,-4.68,0
21.417,-3.82,-4.68,0
21.437,-3.82,-4.8,0
21.457,-3.82,-4.8,0
21.477,-3.82,-4.8,0
21.497,-3.82,-4.8,0
21.517,-3.82,-4.68,0
21.537,-3.82,-4.68,0
21.557,-3.7,-4.56,0
21.577,-3.7,-4.56,0
21.597,-3.7,-4.56,0
21.62,-3.58,-4.56,0
21.637,-3.7,-4.68,0
21.657,-4.07,-4.92,0
21.677,-5.29,-6.15,0
21.697,-6.27,-7.0,0
21.717,-6.88,-8.22,0
21.737,-7.37,-9.08,0
21.758,-8.35,-9.57,0
21.778,-9.08,-9.69,0
21.798,-9.32,-9.81,0
21.818,-9.57,-9.93,0
21.838,-9.69,-10.06,0
21.858,-9.93,-10.06,0
21.878,-10.06,-10.06,0
21.898,-10.06,-10.06,0
21.918,-10.06,-10.06,0
21.938,-10.06,-10.06,0
21.958,-10.06,-10.18,0
21.978,-10.18,-10.18,0
21.998,-10.18,-10.18,0
22.018,-10.3,-10.18,0
22.038,-10.3,-10.18,0
22.058,-10.3,-10.18,0
22.078,-10.18,-10.18,0
22.098,-10.3,-10.06,0
22.118,-10.3,-10.18,0
22.138,-10.3,-10.18,0
22.158,-10.3,-10.18,0
22.178,-10.3,-10.18,0
22.198,-10.3,-10.18,0
22.218,-10.18,-10.18,0
22.238,-10.18,-10.3,0
22.258,-10.3,-10.3,0
22.278,-10.3,-10.18,0
22.298,-10.3,-10.3,0
22.318,-10.3,-10.3,0
22.339,-10.3,-10.18,0
22.358,-10.3,-10.3,1
22.378,-10.3,-10.3,1
22.398,-10.18,-10.3,1
22.418,-10.18,-10.3,1
22.439,-10.3,-10.3,1
22.458,-10.3,-10.3,1
22.478,-10.3,-10.3,1
22.498,-10.3,-10.3,1
22.519,-10.3,-10.3,1
22.539,-10.42,-10.3,1
22.558,-10.3,-10.3,1
22.558,-10.42,-10.3,1
22.578,-10.42,-10.3,1
22.598,-10.42,-10.3,1
22.618,-9.93,-9.81,1
22.638,-9.32,-9.2,1
22.658,-8.83,-8.47,1
22.678,-8.35,-7.49,1
22.698,-7.73,-6.88,1
22.718,-6.88,-6.51,1
22.739,-6.27,-6.15,1
22.758,-5.78,-5.9,1
22.778,-5.41,-5.78,1
22.798,-4.92,-5.54,1
22.819,-4.68,-5.41,1
22.838,-4.68,-5.29,1
22.858,-4.56,-5.29,1
22.878,-4.56,-5.17,1
22.898,-4.56,-5.05,1
22.919,-4.44,-5.05,1
22.939,-4.44,-5.05,0
22.958,-4.19,-5.05,0
22.958,-3.95,-5.05,0
22.978,-4.07,-5.05,0
22.998,-3.95,-4.92,0
23.018,-4.07,-4.92,0
23.038,-4.07,-4.92,0
23.059,-4.07,-4.92,0
23.078,-3.95,-4.8,0
23.098,-3.82,-4.8,0
23.119,-3.95,-4.8,0
23.139,-3.95,-4.8,0
23.158,-3.95,-4.8,0
23.179,-4.07,-4.92,0
23.199,-4.07,-4.92,0
23.219,-4.07,-4.92,0
23.239,-3.95,-4.8,0
23.259,-3.7,-4.8,0
23.279,-3.7,-4.8,0
23.299,-3.82,-4.68,0
23.318,-3.82,-4.68,0
23.338,-3.95,-4.68,0
23.358,-3.95,-4.68,0
23.379,-3.95,-4.8,0
23.398,-3.82,-4.68,0
23.419,-3.82,-4.8,0
23.438,-3.82,-4.68,0
23.459,-3.82,-4.68,0
23.479,-3.82,-4.68,0
23.499,-3.82,-4.68,0
23.519,-3.7,-4.68,0
23.539,-3.7,-4.56,0
23.559,-3.7,-4.56,0
23.579,-3.58,-4.56,0
23.598,-3.7,-4.56,0
23.619,-3.7,-4.56,0
23.639,-4.56,-5.54,0
23.659,-5.78,-6.51,0
23.679,-6.51,-7.49,0
23.698,-7.0,-8.71,0
23.719,-7.73,-9.32,0
23.741,-8.71,-9.57,0
23.758,-9.2,-9.69,0
23.758,-9.45,-9.93,0
23.779,-9.57,-9.93,0
23.799,-9.81,-10.06,0
23.818,-10.06,-10.06,0
23.839,-10.06,-10.06,0
23.859,-10.18,-10.06,0
23.879,-10.18,-10.18,0
23.899,-10.06,-10.18,0
23.918,-10.06,-10.18,0
23.939,-10.18,-10.18,0
23.959,-10.3,-10.18,0
23.979,-10.3,-10.18,0
23.999,-10.3,-10.18,0
24.018,-10.3,-10.18,0
24.039,-10.3,-10.18,0
24.059,-10.18,-10.3,0
24.078,-10.3,-10.18,0
24.099,-10.3,-10.18,0
24.119,-10.3,-10.18,0
24.139,-10.3,-10.3,0
24.159,-10.3,-10.18,0
24.179,-10.18,-10.18,0
24.2,-10.18,-10.18,0
24.219,-10.3,-10.3,0
24.239,-10.3,-10.3,0
24.259,-10.3,-10.18,0
24.279,-10.3,-10.3,0
24.3,-10.3,-10.3,1
24.32,-10.3,-10.3,1
24.339,-10.18,-10.3,1
24.359,-10.18,-10.3,1
24.38,-10.3,-10.3,1
24.399,-10.3,-10.3,1
24.42,-10.3,-10.3,1
24.44,-10.42,-10.3,1
24.459,-10.3,-10.3,1
24.479,-10.3,-10.3,1
24.499,-10.42,-10.3,1
24.519,-10.42,-10.3,1
24.539,-10.42,-10.3,1
24.559,-10.3,-10.3,1
24.559,-10.18,-10.06,1
24.579,-9.57,-9.57,1
24.599,-8.96,-8.83,1
24.619,-8.59,-7.98,1
24.639,-7.98,-7.12,1
24.659,-7.25,-6.63,1
24.679,-6.63,-6.39,1
24.699,-6.15,-6.15,1
24.719,-5.66,-5.9,1
24.739,-5.05,-5.66,1
24.759,-4.92,-5.54,1
24.779,-4.68,-5.41,1
24.799,-4.68,-5.29,1
24.819,-4.56,-5.29,1
24.839,-4.56,-5.17,1
24.859,-4.68,-5.05,1
24.879,-4.44,-5.05,1
24.899,-4.19,-5.05,0
24.919,-4.07,-5.05,0
24.94,-4.07,-5.05,0
24.959,-4.07,-5.05,0
24.959,-4.07,-4.92,0
24.98,-4.19,-4.92,0
25.0,-4.07,-4.92,0
25.019,-3.95,-4.8,0
25.039,-3.82,-4.8,0
25.059,-3.82,-4.8,0
25.079,-3.82,-4.8,0
25.1,-3.95,-4.8,0
25.12,-4.07,-4.8,0
25.139,-4.07,-4.92,0
25.16,-4.07,-4.92,0
25.18,-3.7,-4.8,0
25.2,-3.7,-4.8,0
25.22,-3.7,-4.8,0
25.24,-3.82,-4.68,0
25.259,-3.82,-4.68,0
25.28,-3.82,-4.68,0
25.3,-4.07,-4.68,0
25.32,-3.95,-4.8,0
25.339,-3.82,-4.8,0
25.359,-3.82,-4.8,0
25.38,-3.82,-4.8,0
25.399,-3.82,-4.8,0
25.42,-3.82,-4.8,0
25.439,-3.82,-4.68,0
25.459,-3.82,-4.68,0
25.479,-3.7,-4.68,0
25.501,-3.58,-4.68,0
25.52,-3.58,-4.56,0
25.54,-3.58,-4.56,0
25.56,-3.7,-4.56,0
25.58,-4.07,-4.92,0
25.599,-5.29,-6.02,0
25.62,-6.27,-6.88,0
25.639,-6.88,-8.1,0
25.66,-7.37,-8.96,0
25.68,-8.35,-9.45,0
25.7,-9.08,-9.69,0
25.72,-9.45,-9.81,0
25.74,-9.57,-9.81,0
25.76,-9.69,-9.93,0
25.76,-9.93,-10.06,0
25.781,-10.06,-10.06,0
25.801,-10.18,-10.06,0
25.821,-10.18,-10.06,0
25.841,-10.18,-10.18,0
25.861,-10.06,-10.18,0
25.881,-10.18,-10.18,0
25.901,-10.18,-10.18,0
25.921,-10.3,-10.18,0
25.941,-10.3,-10.18,0
25.961,-10.3,-10.18,0
25.98,-10.3,-10.18,0
26.001,-10.18,-10.18,0
26.021,-10.18,-10.18,0
26.041,-10.18,-10.18,0
26.061,-10.3,-10.3,0
26.081,-10.18,-10.3,0
26.101,-10.3,-10.18,0
26.121,-10.3,-10.3,0
26.141,-10.18,-10.18,0
26.161,-10.18,-10.18,0
26.161,-10.18,-10.18,0
26.182,-10.3,-10.18,0
26.202,-10.3,-10.3,0
26.222,-10.3,-10.18,0
26.241,-10.3,-10.3,1
26.262,-10.3,-10.3,1
26.282,-10.18,-10.3,1
26.301,-10.18,-10.3,1
26.322,-10.18,-10.3,1
26.342,-10.3,-10.3,1
26.361,-10.3,-10.3,1
26.381,-10.3,-10.3,1
26.401,-10.3,-10.3,1
26.421,-10.3,-10.3,1
26.442,-10.3,-10.3,1
26.462,-10.42,-10.3,1
26.482,-10.42,-10.3,1
26.502,-10.42,-10.3,1
26.521,-9.93,-9.81,1
26.541,-9.32,-9.32,1
26.561,-8.83,-8.59,1
26.582,-8.35,-7.61,1
26.602,-7.86,-6.88,1
26.622,-7.0,-6.51,1
26.642,-6.39,-6.27,1
26.662,-5.9,-6.02,1
26.681,-5.54,-5.78,1
26.702,-4.92,-5.66,1
26.722,-4.8,-5.54,1
26.742,-4.68,-5.29,1
26.762,-4.68,-5.29,1
26.782,-4.56,-5.17,1
26.801,-4.56,-5.17,1
26.822,-4.68,-5.05,1
26.842,-4.44,-5.05,1
26.862,-4.07,-5.05,0
26.882,-4.07,-5.05,0
26.902,-3.95,-5.05,0
26.922,-4.07,-4.92,0
26.942,-4.07,-4.92,0
26.962,-4.19,-4.92,0
26.962,-4.07,-4.8,0
26.982,-3.95,-4.8,0
27.002,-3.82,-4.8,0
27.023,-3.82,-4.8,0
27.042,-3.95,-4.8,0
27.062,-3.95,-4.8,0
27.082,-4.07,-4.8,0
27.102,-4.19,-4.8,0
27.123,-4.07,-4.8,0
27.142,-3.7,-4.8,0
27.162,-3.7,-4.8,0
27.183,-3.82,-4.8,0
27.203,-3.82,-4.8,0
27.222,-3.82,-4.68,0
27.242,-3.95,-4.68,0
27.263,-4.07,-4.8,0
27.282,-3.95,-4.68,0
27.302,-3.7,-4.8,0
27.323,-3.82,-4.8,0
27.343,-3.82,-4.8,0
27.363,-3.82,-4.8,0
27.363,-3.82,-4.68,0
27.383,-3.82,-4.68,0
27.403,-3.95,-4.68,0
27.423,-3.82,-4.68,0
27.443,-3.58,-4.68,0
27.463,-3.58,-4.56,0
27.483,-3.7,-4.68,0
27.503,-3.82,-4.68,0
27.523,-4.56,-5.54,0
27.543,-5.78,-6.51,0
27.563,-6.63,-7.37,0
27.583,-7.0,-8.59,0
27.604,-7.73,-9.32,0
27.624,-8.71,-9.57,0
27.643,-9.2,-9.69,0
27.663,-9.45,-9.81,0
27.683,-9.57,-9.93,0
27.703,-9.81,-9.93,0
27.723,-9.93,-10.06,0
27.743,-10.06,-10.06,0
27.763,-10.06,-10.06,0
27.763,-10.06,-10.06,0
27.784,-10.18,-10.18,0
27.803,-10.06,-10.18,0
27.824,-10.18,-10.18,0
27.843,-10.3,-10.18,0
27.863,-10.3,-10.18,0
27.884,-10.3,-10.18,0
27.904,-10.3,-10.18,0
27.924,-10.3,-10.18,0
27.943,-10.18,-10.18,0
27.963,-10.18,-10.18,0
27.984,-10.3,-10.18,0
28.004,-10.18,-10.18,0
28.024,-10.18,-10.18,0
28.044,-10.18,-10.3,0
28.064,-10.18,-10.3,0
28.083,-10.18,-10.3,0
28.104,-10.18,-10.3,0
28.124,-10.3,-10.3,0
28.144,-10.3,-10.18,0
28.164,-10.3,-10.3,0
28.184,-10.3,-10.3,0
28.204,-10.3,-10.3,1
28.225,-10.18,-10.3,1
28.244,-10.18,-10.3,1
28.264,-10.18,-10.3,1
28.284,-10.3,-10.3,1
28.304,-10.3,-10.18,1
28.324,-10.3,-10.3,1
28.344,-10.3,-10.3,1
28.365,-10.3,-10.3,1
28.385,-10.3,-10.3,1
28.404,-10.3,-10.3,1
28.424,-10.42,-10.3,1
28.444,-10.3,-10.3,1
28.464,-10.3,-10.18,1
28.484,-9.81,-9.69,1
28.504,-9.2,-9.08,1
28.524,-8.71,-8.22,1
28.544,-8.1,-7.25,1
28.564,-7.49,-6.76,1
28.58,-6.76,-6.39,1
28.602,-6.15,-6.15,1
28.621,,,
28.641,-5.78,-5.9,1
28.661,-5.17,-5.66,1
28.681,-4.92,-5.54,1
28.701,-4.8,-5.41,1
28.721,-4.68,-5.29,1
28.741,-4.56,-5.29,1
28.761,-4.68,-5.17,1
28.781,-4.68,-5.05,1
28.801,-4.56,-5.05,1
28.821,,,
28.841,-4.19,-5.05,0
28.861,-4.07,-5.05,0
28.881,-4.07,-5.05,0
28.901,-3.95,-5.05,0
28.921,-4.07,-4.92,0
28.941,-4.19,-4.92,0
28.961,-4.07,-4.92,0
28.981,-3.95,-4.8,0
29.002,-3.82,-4.8,0
29.022,-3.82,-4.8,0
29.042,-3.82,-4.8,0
29.062,-3.95,-4.8,0
29.082,,,
29.102,-3.95,-4.8,0
29.122,-4.07,-4.92,0
29.142,-4.19,-4.8,0
29.162,-3.82,-4.8,0
29.182,-3.7,-4.8,0
29.202,-3.82,-4.68,0
29.222,-3.82,-4.68,0
29.242,-3.82,-4.68,0
29.262,-3.95,-4.68,0
29.282,-4.07,-4.68,0
29.302,-3.95,-4.68,0
29.322,-3.82,-4.68,0
29.346,-3.82,-4.8,0
29.367,-3.95,-4.8,0
29.388,,,
29.408,-3.82,-4.8,0
29.428,-3.82,-4.8,0
29.448,-3.82,-4.68,0
29.468,-3.82,-4.68,0
29.488,-3.82,-4.68,0
29.508,-3.7,-4.56,0
29.528,-3.7,-4.56,0
29.548,-3.7,-4.56,0
29.568,-3.7,-4.68,0
29.588,,,
29.608,-3.95,-4.8,0
29.628,-5.05,-5.9,0
29.648,-6.15,-6.76,0
29.668,-6.76,-7.86,0
29.688,-7.25,-8.96,0
29.708,-8.1,-9.45,0
29.728,-8.96,-9.69,0
29.748,-9.32,-9.81,0
29.768,-9.57,-9.93,0
29.788,-9.69,-10.06,0
29.808,-9.81,-10.06,0
29.829,-10.06,-10.06,0
29.85,,,
29.868,-10.06,-10.06,0
29.889,-10.06,-10.06,0
29.909,-10.18,-10.18,0
29.928,-10.06,-10.18,0
29.948,-10.06,-10.3,0
29.972,-10.18,-10.18,0
29.993,,,
30.008,-10.3,-10.18,0
30.028,-10.3,-10.18,0
30.048,-10.3,-10.18,0
30.068,-10.18,-10.18,0
30.092,-10.18,-10.18,0
30.116,-10.18,-10.18,0
30.141,-10.18,-10.18,0
30.161,,,
30.168,-10.3,-10.18,0
30.188,,,
30.209,-10.3,-10.18,0
30.229,-10.3,-10.3,0
30.249,-10.18,-10.3,0
30.269,-10.18,-10.18,0
30.289,-10.18,-10.18,0
30.309,-10.3,-10.3,0
30.329,,,
30.349,-10.3,-10.3,0
30.369,-10.3,-10.18,0
30.389,-10.3,-10.3,0
30.409,-10.3,-10.18,1
30.429,-10.3,-10.3,1
30.452,-10.18,-10.3,1
30.473,,,
30.489,-10.18,-10.3,1
30.51,-10.3,-10.3,1
30.529,-10.3,-10.3,1
30.549,-10.3,-10.3,1
30.57,-10.3,-10.3,1
30.596,-10.3,-10.3,1
30.62,-10.3,-10.3,1
30.641,,,
30.656,-10.3,-10.3,1
30.676,-10.42,-10.3,1
30.696,-10.42,-10.3,1
30.717,-10.3,-10.3,1
30.739,-10.06,-9.93,1
30.759,,,
30.776,-9.45,-9.45,1
30.796,-8.96,-8.59,1
30.816,-8.35,-7.73,1
30.836,-7.86,-7.0,1
30.856,-7.12,-6.51,1
30.876,-6.27,-6.27,1
30.896,-5.9,-6.02,1
30.916,-5.41,-5.9,1
30.937,-5.05,-5.66,1
30.956,,,
30.976,-4.8,-5.54,1
30.997,-4.68,-5.41,1
31.017,-4.68,-5.29,1
31.037,-4.68,-5.17,1
31.057,-4.68,-5.17,1
31.077,-4.56,-5.05,1
31.097,-4.31,-5.05,1
31.118,-4.07,-5.05,0
31.137,-4.07,-5.05,0
31.157,-3.95,-5.05,0
31.177,-4.07,-4.92,0
31.198,-4.19,-4.92,0
31.222,-4.19,-4.92,0
31.242,-4.07,-4.92,0
31.263,-3.95,-4.8,0
31.287,-3.95,-4.8,0
31.308,-3.95,-4.8,0
31.329,-3.95,-4.8,0
31.353,-4.07,-4.8,0
31.374,-4.19,-4.8,0
31.394,,,
31.398,,,
31.418,-4.19,-4.8,0
31.439,-4.07,-4.8,0
31.458,-3.82,-4.8,0
31.478,-3.7,-4.8,0
31.498,-3.82,-4.8,0
31.519,-3.82,-4.68,0
31.538,-3.95,-4.68,0
31.558,-4.07,-4.68,0
31.578,-4.07,-4.68,0
31.599,-3.95,-4.68,0
31.619,-3.82,-4.68,0
31.639,-3.82,-4.8,0
31.658,,,
31.679,-3.95,-4.8,0
31.698,-3.82,-4.8,0
31.718,-3.82,-4.8,0
31.739,-3.82,-4.68,0
31.758,-3.95,-4.68,0
31.778,-3.82,-4.56,0
31.799,-3.7,-4.56,0
31.819,-3.7,-4.56,0
31.839,-3.7,-4.56,0
31.859,-3.7,-4.56,0
31.879,-4.44,-5.29,0
31.899,-5.66,-6.39,0
31.92,,,
31.939,-6.51,-7.12,0
31.959,-7.0,-8.47,0
31.979,-7.61,-9.2,0
31.999,-8.59,-9.57,0
32.019,-9.2,-9.69,0
32.039,-9.45,-9.81,0
32.059,-9.69,-9.93,0
32.079,-9.81,-9.93,0
32.099,-9.93,-10.06,0
32.119,-9.93,-10.06,0
32.139,,,
32.159,-10.06,-10.06,0
32.179,-10.06,-10.18,0
32.199,-10.06,-10.18,0
32.219,-10.06,-10.18,0
32.24,-10.06,-10.18,0
32.262,-10.3,-10.18,0
32.283,,,
32.3,-10.3,-10.18,0
32.319,-10.3,-10.18,0
32.34,-10.3,-10.18,0
32.359,-10.3,-10.18,0
32.381,-10.18,-10.18,0
32.406,-10.3,-10.18,0
32.431,-10.3,-10.18,0
32.451,,,
32.46,-10.3,-10.18,0
32.48,-10.3,-10.18,0
32.5,-10.3,-10.3,0
32.525,-10.3,-10.18,0
32.549,-10.18,-10.3,0
32.574,-10.3,-10.3,0
32.594,,,
32.599,-10.3,-10.18,0
32.62,,,
32.64,-10.3,-10.18,0
32.659,-10.3,-10.3,0
32.68,-10.3,-10.3,0
32.7,-10.3,-10.3,1
32.72,-10.3,-10.3,1
32.741,-10.18,-10.3,1
32.763,,,
32.779,-10.3,-10.3,1
32.799,-10.3,-10.3,1
32.819,-10.3,-10.3,1
32.84,-10.3,-10.3,1
32.861,-10.3,-10.3,1
32.885,-10.3,-10.3,1
32.905,,,
32.919,-10.3,-10.3,1
32.939,-10.3,-10.3,1
32.96,-10.42,-10.3,1
32.979,-10.3,-10.3,1
33.004,-10.3,-10.3,1
33.028,-9.81,-9.81,1
33.049,-9.2,-9.2,1
33.07,,,
33.084,-8.71,-8.35,1
33.105,-8.22,-7.37,1
33.125,-7.49,-6.76,1
33.145,-6.88,-6.51,1
33.165,-6.27,-6.15,1
33.184,-5.78,-6.02,1
33.205,-5.29,-5.78,1
33.225,-4.92,-5.54,1
33.245,-4.8,-5.41,1
33.266,,,
33.284,-4.68,-5.29,1
33.305,-4.56,-5.29,1
33.325,-4.8,-5.17,1
33.345,-4.68,-5.17,1
33.365,-4.56,-5.05,1
33.385,-4.19,-5.05,0
33.405,-4.07,-5.05,0
33.422,-4.07,-5.05,0
33.442,-4.07,-5.05,0
33.467,-4.07,-4.92,0
33.487,-4.19,-4.92,0
33.508,-4.19,-4.92,0
33.533,-4.07,-4.92,0
33.553,-3.95,-4.8,0
33.574,-3.95,-4.8,0
33.598,-3.95,-4.8,0
33.618,-3.95,-4.8,0
33.639,-3.95,-4.8,0
33.664,-4.19,-4.92,0
33.684,-4.19,-4.8,0
33.704,,,
33.704,,,
33.722,-3.95,-4.8,0
33.742,-3.7,-4.8,0
33.762,-3.82,-4.8,0
33.782,-3.82,-4.8,0
33.802,-3.82,-4.68,0
33.823,-4.07,-4.68,0
33.836,,,
33.856,-4.07,-4.68,0
33.876,-4.07,-4.8,0
33.896,-3.95,-4.68,0
33.916,-3.82,-4.8,0
33.936,-3.82,-4.8,0
33.956,-3.95,-4.8,0
33.976,-3.82,-4.8,0
33.996,-3.95,-4.68,0
34.016,-3.82,-4.68,0
34.036,,,
34.056,-3.95,-4.68,0
34.077,-3.7,-4.56,0
34.096,-3.58,-4.56,0
34.116,-3.58,-4.56,0
34.136,-3.58,-4.56,0
34.156,-3.82,-4.68,0
34.176,-4.92,-5.78,0
34.196,-6.02,-6.63,0
34.217,-6.63,-7.61,0
34.237,-7.12,-8.71,0
34.257,-7.86,-9.32,0
34.278,-8.83,-9.57,0
34.298,,,
34.325,-9.32,-9.81,0
34.337,-9.45,-9.81,0
34.358,-9.69,-9.93,0
34.378,-9.81,-9.93,0
34.397,-9.93,-10.06,0
34.417,-10.18,-10.06,0
34.437,-10.06,-10.06,0
34.457,-10.18,-10.06,0
34.478,-10.18,-10.18,0
34.503,-10.06,-10.18,0
34.527,-10.18,-10.18,0
34.548,,,
34.557,-10.3,-10.18,0
34.577,-10.3,-10.18,0
34.597,-10.3,-10.18,0
34.622,-10.3,-10.18,0
34.647,-10.18,-10.18,0
34.671,-10.18,-10.18,0
34.696,-10.3,-10.18,0
34.716,,,
34.727,-10.3,-10.18,0
34.748,-10.3,-10.18,0
34.767,-10.3,-10.3,0
34.79,-10.3,-10.18,0
34.815,-10.3,-10.18,0
34.838,-10.18,-10.3,0
34.863,-10.18,-10.3,0
34.884,,,
34.887,,,
34.908,-10.3,-10.3,0
34.927,-10.3,-10.18,0
34.947,-10.3,-10.3,0
34.967,-10.3,-10.3,1
34.987,-10.18,-10.3,1
35.007,-10.3,-10.3,1
35.027,,,
35.048,-10.18,-10.3,1
35.068,-10.3,-10.3,1
35.088,-10.3,-10.3,1
35.108,-10.3,-10.3,1
35.128,-10.3,-10.3,1
35.149,-10.3,-10.3,1
35.175,-10.3,-10.3,1
35.195,,,
35.208,-10.3,-10.3,1
35.228,-10.3,-10.3,1
35.249,-10.42,-10.3,1
35.269,-10.3,-10.3,1
35.293,-10.3,-10.06,1
35.318,-9.57,-9.57,1
35.339,-8.96,-8.83,1
35.359,,,
35.368,-8.47,-7.98,1
35.388,-7.98,-7.12,1
35.408,-7.25,-6.63,1
35.428,,,
35.455,-6.51,-6.39,1
35.455,-6.02,-6.15,1
35.475,-5.54,-5.9,1
35.496,-5.17,-5.78,1
35.516,-4.8,-5.54,1
35.535,-4.68,-5.41,1
35.556,,,
35.576,-4.68,-5.29,1
35.595,-4.68,-5.29,1
35.616,-4.8,-5.17,1
35.635,-4.68,-5.05,1
35.656,-4.44,-5.05,1
35.676,-4.19,-5.05,0
35.695,-4.07,-5.05,0
35.716,-4.07,-5.05,0
35.736,-3.95,-4.92,0
35.755,,,
35.775,-4.07,-4.92,0
35.796,-4.19,-4.8,0
35.816,-4.07,-4.92,0
35.836,-3.95,-4.8,0
35.856,-3.82,-4.8,0
35.863,-3.82,-4.8,0
35.883,,,
35.904,-3.95,-4.8,0
35.924,-3.95,-4.8,0
35.944,-4.07,-4.8,0
35.964,-4.19,-4.8,0
35.983,-4.07,-4.8,0
36.003,-3.95,-4.68,0
36.024,-3.7,-4.8,0
36.043,-3.82,-4.8,0
36.064,-3.82,-4.8,0
36.084,-3.82,-4.68,0
36.105,-4.07,-4.68,0
36.125,-4.07,-4.68,0
36.149,-3.95,-4.68,0
36.17,-3.82,-4.8,0
36.191,-3.82,-4.8,0
36.215,-3.82,-4.8,0
36.236,-3.82,-4.8,0
36.256,,,
36.263,-3.82,-4.8,0
36.28,-3.82,-4.68,0
36.301,-3.82,-4.68,0
36.322,,,
36.341,-3.82,-4.68,0
36.361,-3.7,-4.68,0
36.38,-3.58,-4.68,0
36.401,-3.58,-4.68,0
36.421,-3.7,-4.68,0
36.44,-4.19,-5.05,0
36.46,-5.41,-6.15,0
36.481,-6.39,-7.0,0
36.5,-6.88,-8.22,0
36.521,,,
36.541,-7.37,-9.08,0
36.561,-8.35,-9.45,0
36.581,-9.2,-9.69,0
36.601,-9.45,-9.93,0
36.62,-9.69,-9.93,0
36.64,-9.81,-10.06,0
36.661,-9.93,-10.06,0
36.681,-10.06,-10.06,0
36.701,-10.06,-10.06,0
36.722,-10.18,-10.06,0
36.747,-10.18,-10.18,0
36.772,-10.06,-10.18,0
36.793,,,
36.801,-10.06,-10.18,0
36.821,,,
36.841,-10.3,-10.18,0
36.861,-10.3,-10.18,0
36.881,-10.3,-10.18,0
36.901,-10.3,-10.18,0
36.921,-10.18,-10.18,0
36.941,-10.18,-10.18,0
36.961,,,
36.981,-10.3,-10.18,0
37.001,-10.3,-10.3,0
37.021,-10.3,-10.3,0
37.041,-10.3,-10.3,0
37.062,-10.3,-10.18,0
37.084,-10.18,-10.3,0
37.104,,,
37.124,-10.18,-10.18,0
37.144,-10.18,-10.3,0
37.164,-10.3,-10.3,0
37.184,-10.3,-10.3,0
37.205,-10.3,-10.18,0
37.227,-10.3,-10.3,0
37.251,-10.3,-10.3,1
37.272,,,
37.284,-10.3,-10.3,1
37.304,-10.18,-10.3,1
37.324,-10.18,-10.3,1
37.345,-10.3,-10.3,1
37.37,-10.3,-10.3,1
37.395,-10.3,-10.3,1
37.419,-10.3,-10.3,1
37.44,,,
37.444,-10.42,-10.3,1
37.464,-10.3,-10.3,1
37.489,-10.3,-10.3,1
37.513,-10.3,-10.3,1
37.538,-10.42,-10.3,1
37.563,-10.42,-10.3,1
37.59,-9.93,-9.81,1
37.608,-9.32,-9.32,1
37.628,-8.83,-8.59,1
37.648,,,
37.649,,,
37.67,-8.35,-7.49,1
37.69,-7.73,-6.88,1
37.71,-6.88,-6.51,1
37.73,-6.39,-6.27,1
37.75,-5.78,-6.02,1
37.77,-5.41,-5.78,1
37.79,-5.05,-5.66,1
37.809,-4.8,-5.41,1
37.83,-4.68,-5.29,1
37.849,-4.56,-5.17,1
37.87,-4.68,-5.17,1
37.891,-4.68,-5.05,1
37.915,-4.44,-5.05,1
37.936,-4.31,-5.05,1
37.956,,,
37.971,-4.07,-5.05,0
37.992,-3.95,-5.05,0
38.011,-3.95,-4.92,0
38.031,-3.95,-4.92,0
38.051,-4.07,-4.92,0
38.071,-4.07,-4.8,0
38.091,-3.95,-4.8,0
38.112,-3.95,-4.68,0
38.132,-3.7,-4.8,0
38.152,,,
38.171,-3.82,-4.68,0
38.192,-3.82,-4.68,0
38.211,-3.82,-4.68,0
38.232,-3.95,-4.68,0
38.252,-3.82,-4.68,0
38.271,-3.82,-4.68,0
38.291,-3.7,-4.68,0
38.308,-3.58,-4.56,0
38.329,-3.58,-4.56,0
38.349,,,
38.369,-3.7,-4.56,0
38.389,-3.82,-4.44,0
38.409,-3.82,-4.44,0
38.428,-3.82,-4.44,0
38.448,-3.7,-4.56,0
38.469,-3.7,-4.56,0
38.488,-3.7,-4.56,0
38.509,-3.7,-4.68,0
38.529,-3.7,-4.56,0
38.548,,,
38.572,-3.7,-4.56,0
38.588,-3.7,-4.44,0
38.609,-3.7,-4.56,0
38.628,-3.7,-4.44,0
38.649,-3.58,-4.44,0
38.668,-3.58,-4.44,0
38.689,-3.58,-4.44,0
38.709,-3.7,-4.44,0
38.722,-4.68,-5.41,0
38.743,,,
38.762,-5.78,-6.39,0
38.783,-6.63,-7.37,0
38.802,-7.12,-8.59,0
38.822,-7.86,-9.32,0
38.843,-8.83,-9.57,0
38.862,-9.2,-9.81,0
38.882,-9.57,-9.93,0
38.903,-9.81,-9.93,0
38.922,-9.93,-10.06,0
38.943,-10.06,-10.18,0
38.968,-10.18,-10.18,0
38.988,,,
39.002,-10.18,-10.18,0
39.022,-10.18,-10.18,0
39.042,-10.18,-10.18,0
39.062,-10.18,-10.3,0
39.087,-10.3,-10.3,0
39.11,-10.3,-10.3,0
39.136,-10.3,-10.3,0
39.157,,,
39.176,-10.3,-10.18,0
39.196,-10.3,-10.3,0
39.216,-10.3,-10.3,0
39.236,-10.3,-10.3,0
39.257,-10.3,-10.3,0
39.279,-10.3,-10.18,0
39.304,-10.3,-10.3,0
39.323,,,
39.336,-10.3,-10.3,0
39.356,-10.3,-10.3,0
39.376,-10.3,-10.3,0
39.398,-10.18,-10.3,0
39.423,-10.3,-10.3,0
39.446,-10.42,-10.3,0
39.467,,,
39.476,-10.3,-10.3,0
39.496,,,
39.516,-10.3,-10.3,0
39.536,-10.42,-10.3,1
39.557,-10.3,-10.3,1
39.576,-10.3,-10.3,1
39.596,-10.3,-10.3,1
39.616,-10.3,-10.3,1
39.638,,,
39.656,-10.3,-10.3,1
39.676,-10.3,-10.3,1
39.697,-10.42,-10.3,1
39.716,-10.42,-10.3,1
39.736,-10.3,-10.3,1
39.758,-10.42,-10.3,1
39.779,,,
39.796,-10.42,-10.3,1
39.816,-10.42,-10.3,1
39.836,-10.42,-10.42,1
39.857,-10.3,-10.18,1
39.877,-9.69,-9.69,1
39.897,-9.08,-8.96,1
39.922,-8.59,-8.1,1
39.943,-8.22,-7.12,1
39.964,,,
39.983,-7.37,-6.63,1
40.003,-6.63,-6.39,1
40.023,-6.15,-6.15,1
40.043,-5.66,-5.9,1
40.063,-5.29,-5.66,1
40.083,-4.92,-5.54,1
40.103,-4.68,-5.41,1
40.123,-4.68,-5.29,1
40.144,-4.56,-5.17,1
40.163,,,
40.183,-4.68,-5.05,1
40.203,-4.56,-5.05,1
40.223,-4.44,-5.05,1
40.243,-4.19,-4.92,0
40.263,-3.95,-4.92,0
40.283,-3.95,-4.92,0
40.303,-3.95,-4.92,0
40.323,-4.07,-4.92,0
40.343,-4.19,-4.8,0
40.357,,,
40.377,-3.95,-4.8,0
40.397,-3.95,-4.68,0
40.417,-3.95,-4.8,0
40.437,-3.82,-4.68,0
40.457,-3.82,-4.8,0
40.477,-3.82,-4.68,0
40.497,-4.07,-4.8,0
40.518,-4.07,-4.8,0
40.537,-3.95,-4.68,0
40.557,,,
40.577,-3.82,-4.68,0
40.597,-3.7,-4.68,0
40.617,-3.7,-4.68,0
40.637,-3.7,-4.68,0
40.658,-3.82,-4.56,0
40.677,-4.07,-4.68,0
40.697,-3.95,-4.68,0
40.717,-3.95,-4.68,0
40.737,-3.82,-4.68,0
40.757,-3.82,-4.68,0
40.777,-3.82,-4.68,0
40.798,-3.7,-4.68,0
40.819,-3.7,-4.68,0
40.839,-3.82,-4.56,0
40.859,-3.7,-4.56,0
40.885,-3.82,-4.56,0
40.904,-3.7,-4.56,0
40.925,-3.58,-4.44,0
40.95,-3.58,-4.44,0
40.97,-3.7,-4.56,0
40.99,-3.95,-4.92,0
41.016,-5.29,-6.02,0
41.036,-6.27,-6.88,0
41.057,,,
41.058,,,
41.078,-6.76,-8.1,0
41.097,-7.37,-9.08,0
41.117,-8.35,-9.45,0
41.138,-9.08,-9.69,0
41.157,-9.45,-9.81,0
41.167,-9.69,-9.93,0
41.188,,,
41.208,-9.81,-10.06,0
41.228,-10.06,-10.06,0
41.247,-10.06,-10.18,0
41.268,-10.18,-10.06,0
41.288,-10.18,-10.18,0
41.308,,,
41.328,-10.18,-10.18,0
41.348,-10.18,-10.18,0
41.368,-10.18,-10.3,0
41.388,-10.3,-10.3,0
41.408,-10.3,-10.3,0
41.429,-10.3,-10.3,0
41.45,,,
41.468,-10.3,-10.18,0
41.488,-10.3,-10.18,0
41.508,-10.3,-10.18,0
41.528,-10.3,-10.3,0
41.548,-10.3,-10.3,0
41.573,-10.3,-10.3,0
41.593,,,
41.613,-10.3,-10.3,0
41.633,-10.3,-10.3,0
41.653,-10.3,-10.3,0
41.673,-10.3,-10.3,0
41.693,-10.3,-10.3,0
41.715,-10.3,-10.3,0
41.741,-10.3,-10.3,0
41.761,,,
41.773,-10.42,-10.3,0
41.794,-10.42,-10.3,0
41.813,-10.42,-10.3,1
41.835,-10.3,-10.3,1
41.86,-10.3,-10.3,1
41.883,-10.3,-10.3,1
41.905,,,
41.914,-10.42,-10.42,1
41.933,-10.3,-10.42,1
41.954,-10.42,-10.3,1
41.978,-10.42,-10.3,1
42.003,-10.42,-10.42,1
42.027,-10.42,-10.42,1
42.051,-10.42,-10.42,1
42.072,,,
42.079,-10.42,-10.42,1
42.099,,,
42.119,-10.42,-10.42,1
42.139,-10.42,-10.42,1
42.158,-9.93,-9.93,1
42.179,-9.45,-9.32,1
42.199,-8.83,-8.59,1
42.218,-8.35,-7.61,1
42.239,-7.73,-6.88,1
42.258,-6.88,-6.51,1
42.278,-6.39,-6.27,1
42.299,,,
42.319,-5.78,-6.02,1
42.339,-5.41,-5.9,1
42.359,-5.17,-5.66,1
42.379,-4.8,-5.41,1
