Time (s),Pressure 1 (kPa),Pressure 2 (kPa),Switch State
0.086,-7.61,-7.86,1
0.106,-7.61,-7.86,1
0.126,-7.61,-7.86,1
0.146,-7.49,-7.86,1
0.166,-7.61,-7.86,1
0.186,-7.61,-7.98,1
0.206,-7.49,-7.86,1
0.226,-7.61,-7.86,1
0.246,-7.61,-7.98,1
0.266,-7.61,-7.86,1
0.286,-7.61,-7.86,1
0.306,-7.61,-7.86,1
0.326,-7.49,-7.98,1
0.346,-7.61,-7.86,1
0.366,-7.49,-7.98,1
0.386,-7.61,-7.86,1
0.406,-7.61,-7.86,1
0.426,-7.61,-7.86,1
0.446,-7.61,-7.86,1
0.466,-7.49,-7.86,1
0.487,-7.61,-7.86,1
0.507,-7.49,-7.86,1
0.527,-7.61,-7.86,1
0.547,-7.49,-7.86,1
0.567,-7.49,-7.86,1
0.587,-7.61,-7.86,1
0.607,-7.49,-7.86,1
0.627,-7.61,-7.86,1
0.647,-7.49,-7.86,1
0.667,-7.61,-7.86,1
0.687,-7.61,-7.98,1
0.707,-7.61,-7.86,1
0.727,-7.61,-7.98,1
0.747,-7.49,-7.86,1
0.767,-7.61,-7.86,1
0.787,-7.61,-7.86,1
0.807,-7.61,-7.86,1
0.827,-7.61,-7.86,1
0.847,-7.61,-7.86,1
0.867,-7.61,-7.86,1
0.887,-7.49,-7.86,1
0.907,-7.61,-7.86,1
0.927,-7.49,-7.86,1
0.947,-7.61,-7.98,1
0.967,-7.49,-7.86,1
0.987,-7.61,-7.86,1
1.007,-7.61,-7.86,1
1.027,-7.49,-7.86,1
1.047,-7.61,-7.86,1
1.067,-7.49,-7.86,1
1.087,-7.49,-7.86,1
1.107,-7.49,-7.86,1
1.127,-7.61,-7.86,1
1.147,-7.49,-7.86,1
1.167,-7.49,-7.86,1
1.187,-7.61,-7.86,1
1.207,-7.49,-7.86,1
1.227,-7.49,-7.86,1
1.247,-7.61,-7.98,1
1.267,-7.61,-7.86,1
1.287,-7.49,-7.86,1
1.288,-7.61,-7.86,1
1.308,-7.49,-7.86,1
1.328,-7.61,-7.86,1
1.348,-7.49,-7.86,1
1.368,-7.61,-7.86,1
1.388,-7.61,-7.86,1
1.408,-7.61,-7.98,1
1.428,-7.61,-7.86,1
1.448,-7.61,-7.98,1
1.468,-7.61,-7.86,1
1.488,-7.49,-7.86,1
1.508,-7.61,-7.86,1
1.528,-7.61,-7.86,1
1.548,-7.61,-7.86,1
1.568,-7.61,-7.86,1
1.588,-7.49,-7.86,1
1.608,-7.61,-7.86,1
1.628,-7.61,-7.86,1
1.648,-7.61,-7.86,1
1.668,-7.49,-7.86,1
1.689,-7.61,-7.86,1
1.709,-7.61,-7.86,1
1.729,-7.61,-7.86,1
1.749,-7.61,-7.86,1
1.769,-7.61,-7.98,1
1.789,-7.61,-7.86,1
1.809,-7.61,-7.86,1
1.829,-7.61,-7.86,1
1.849,-7.61,-7.86,1
1.869,-7.49,-7.98,1
1.889,-7.61,-7.86,1
1.909,-7.61,-7.86,1
1.929,-7.61,-7.98,1
1.949,-7.61,-7.86,1
1.969,-7.61,-7.86,1
1.989,-7.61,-7.86,1
2.009,-7.61,-7.86,1
2.029,-7.61,-7.86,1
2.049,-7.61,-7.86,1
2.069,-7.61,-7.86,1
2.089,-7.61,-7.98,1
2.089,-7.61,-7.86,1
2.109,-7.49,-7.86,1
2.129,-7.61,-7.86,1
2.149,-7.49,-7.86,1
2.169,-7.49,-7.86,1
2.189,-7.49,-7.86,1
2.209,-7.61,-7.86,1
2.229,-7.61,-7.86,1
2.249,-7.61,-7.86,1
2.269,-7.61,-7.86,1
2.289,-7.61,-7.86,1
2.309,-7.49,-7.86,1
2.329,-7.61,-7.86,1
2.349,-7.61,-7.86,1
2.369,-7.49,-7.98,1
2.389,-7.61,-7.98,1
2.409,-7.61,-7.86,1
2.429,-7.61,-7.86,1
2.449,-7.61,-7.86,1
2.469,-7.61,-7.86,1
2.489,-7.61,-7.86,1
2.49,-7.61,-7.86,1
2.51,-7.61,-7.86,1
2.53,-7.49,-7.98,1
2.55,-7.61,-7.86,1
2.57,-7.49,-7.86,1
2.59,-7.61,-7.86,1
2.61,-7.61,-7.86,1
2.63,-7.61,-7.86,1
2.65,-7.49,-7.86,1
2.67,-7.49,-7.98,1
2.69,-7.61,-7.86,1
2.71,-7.61,-7.98,1
2.73,-7.61,-7.86,1
2.75,-7.61,-7.86,1
2.77,-7.61,-7.86,1
2.79,-7.49,-7.86,1
2.81,-7.61,-7.98,1
2.83,-7.61,-7.86,1
2.85,-7.49,-7.86,1
2.87,-7.61,-7.86,1
2.89,-7.61,-7.98,1
2.91,-7.61,-7.86,1
2.93,-7.61,-7.86,1
2.95,-7.49,-7.86,1
2.97,-7.49,-7.86,1
2.99,-7.49,-7.86,1
3.01,-7.61,-7.98,1
3.03,-7.61,-7.86,1
3.05,-7.49,-7.98,1
3.07,-7.49,-7.86,1
3.09,-7.61,-7.86,1
3.11,-7.49,-7.86,1
3.13,-7.49,-7.86,1
3.15,-7.61,-7.86,1
3.17,-7.49,-7.86,1
3.19,-7.61,-7.86,1
3.21,-7.61,-7.86,1
3.23,-7.61,-7.86,1
3.25,-7.61,-7.86,1
3.27,-7.61,-7.86,1
3.29,-7.49,-7.86,1
3.31,-7.49,-7.86,1
3.33,-7.37,-7.98,1
3.35,-7.25,-7.86,1
3.37,-7.25,-7.86,1
3.39,-7.25,-7.86,1
3.41,-7.37,-7.86,1
3.43,-7.37,-7.98,1
3.45,-7.37,-7.86,1
3.47,-7.37,-7.86,1
3.49,-7.49,-7.86,1
3.51,-7.37,-7.98,1
3.53,-7.49,-7.86,1
3.55,-7.49,-7.86,1
3.57,-7.49,-7.86,1
3.59,-7.49,-7.86,1
3.61,-7.49,-7.86,1
3.63,-7.49,-7.86,1
3.65,-7.49,-7.98,1
3.67,-7.49,-7.86,1
3.691,-7.49,-7.98,1
3.711,-7.49,-8.22,1
3.731,-7.49,-8.59,1
3.751,-7.49,-8.83,1
3.771,-7.49,-8.71,1
3.791,-7.61,-8.59,1
3.811,-7.49,-8.35,1
3.831,-7.49,-8.22,1
3.851,-7.61,-8.1,1
3.871,-7.49,-8.1,1
3.891,-7.49,-7.98,1
3.911,-7.61,-7.98,1
3.931,-7.49,-7.98,1
3.951,-7.49,-7.98,1
3.971,-7.49,-7.98,1
3.991,-7.61,-7.98,1
4.011,-7.49,-7.98,1
4.031,-7.49,-7.98,1
4.051,-7.49,-7.98,1
4.071,-7.49,-7.98,1
4.091,-7.49,-7.86,1
4.091,-7.49,-7.98,1
4.111,-7.49,-7.98,1
4.131,-7.49,-7.98,1
4.151,-7.61,-7.98,1
4.171,-7.49,-7.86,1
4.191,-7.49,-7.98,1
4.211,-7.49,-7.98,1
4.231,-7.61,-7.98,1
4.251,-7.61,-7.98,1
4.271,-7.49,-7.98,1
4.291,-7.49,-7.86,1
4.311,-7.61,-7.98,1
4.331,-7.61,-7.98,1
4.351,-7.61,-7.98,1
4.371,-7.61,-7.98,1
4.391,-7.49,-7.98,1
4.411,-7.61,-7.98,1
4.431,-7.49,-7.98,1
4.451,-7.49,-7.86,1
4.471,-7.49,-7.98,1
4.492,-7.49,-7.98,1
4.512,-7.61,-7.98,1
4.532,-7.49,-7.86,1
4.552,-7.49,-7.98,1
4.572,-7.12,-7.98,1
4.592,-6.51,-7.61,1
4.612,-5.9,-7.12,1
4.632,-5.41,-6.63,1
4.652,-5.17,-6.27,1
4.672,-5.17,-5.9,1
4.692,-4.8,-5.66,1
4.712,-4.56,-5.66,1
4.732,-4.44,-5.54,1
4.752,-4.44,-5.29,1
4.772,-4.31,-5.29,1
4.792,-4.31,-5.17,1
4.812,-4.31,-5.17,1
4.832,-4.44,-5.05,1
4.852,-4.44,-5.05,1
4.872,-4.19,-5.05,1
4.892,-3.95,-5.05,0
4.892,-4.07,-5.05,0
4.912,-3.95,-5.05,0
4.932,-3.95,-4.92,0
4.952,-3.95,-4.92,0
4.972,-4.07,-4.92,0
4.992,-4.07,-4.92,0
5.012,-3.95,-4.8,0
5.032,-3.95,-4.8,0
5.052,-3.95,-4.8,0
5.072,-4.07,-4.8,0
5.092,-3.95,-4.8,0
5.112,-3.95,-4.8,0
5.132,-4.07,-4.8,0
5.152,-4.07,-4.92,0
5.172,-3.95,-4.92,0
5.192,-3.82,-4.8,0
5.212,-3.82,-4.8,0
5.232,-3.95,-4.8,0
5.252,-3.82,-4.68,0
5.272,-3.95,-4.68,0
5.293,-3.95,-4.68,0
5.313,-4.07,-4.68,0
5.333,-3.95,-4.8,0
5.353,-3.82,-4.8,0
5.373,-3.95,-4.8,0
5.393,-3.82,-4.8,0
5.413,-3.82,-4.8,0
5.433,-3.82,-4.68,0
5.453,-3.82,-4.68,0
5.473,-3.82,-4.68,0
5.493,-3.7,-4.68,0
5.513,-3.7,-4.56,0
5.533,-3.7,-4.56,0
5.553,-3.7,-4.56,0
5.573,-3.7,-4.56,0
5.593,-3.82,-4.56,0
5.613,-4.07,-4.68,0
5.633,-5.05,-5.78,0
5.653,-6.02,-6.51,0
5.673,-6.63,-7.12,0
5.693,-6.88,-8.22,0
5.713,-7.37,-9.08,0
5.733,-8.47,-9.45,0
5.753,-9.08,-9.57,0
5.773,-9.45,-9.69,0
5.793,-9.69,-9.81,0
5.813,-9.81,-9.81,0
5.833,-9.81,-9.93,0
5.853,-9.81,-9.93,0
5.873,-9.81,-9.93,0
5.893,-9.93,-9.93,0
5.913,-9.93,-10.06,0
5.933,-9.93,-10.06,0
5.953,-9.93,-10.06,0
5.973,-10.06,-10.06,0
5.993,-10.06,-10.06,0
6.013,-10.06,-10.06,0
6.033,-10.06,-10.06,0
6.053,-10.06,-10.06,0
6.073,-10.06,-10.18,0
6.093,-10.06,-10.06,0
6.113,-10.06,-10.18,0
6.133,-10.06,-10.18,0
6.153,-10.18,-10.18,0
6.173,-10.18,-10.18,0
6.193,-10.18,-10.18,0
6.213,-10.18,-10.18,0
6.233,-10.18,-10.18,0
6.253,-10.06,-10.18,0
6.273,-10.18,-10.18,0
6.293,-10.18,-10.18,0
6.313,-10.18,-10.18,0
6.333,-10.18,-10.18,0
6.353,-10.18,-10.18,0
6.373,-10.18,-10.18,1
6.393,-10.18,-10.18,1
6.413,-10.18,-10.18,1
6.433,-10.18,-10.18,1
6.453,-10.18,-10.18,1
6.473,-10.18,-10.18,1
6.493,-10.18,-10.3,1
6.494,-10.18,-10.18,1
6.514,-10.3,-10.18,1
6.534,-10.18,-10.3,1
6.554,-10.3,-10.3,1
6.574,-10.3,-10.18,1
6.594,-10.3,-10.18,1
6.614,-10.3,-10.3,1
6.634,-9.81,-9.81,1
6.654,-9.32,-9.32,1
6.674,-8.71,-8.71,1
6.694,-8.22,-7.86,1
6.714,-7.61,-7.12,1
6.734,-6.88,-6.76,1
6.754,-6.27,-6.39,1
6.774,-5.9,-6.15,1
6.794,-5.41,-5.9,1
6.814,-5.17,-5.66,1
6.834,-4.92,-5.54,1
6.854,-4.8,-5.41,1
6.874,-4.68,-5.29,1
6.894,-4.56,-5.29,1
6.895,-4.68,-5.29,1
6.915,-4.68,-5.17,1
6.935,-4.44,-5.17,1
6.955,-4.19,-5.17,0
6.975,-4.19,-5.05,0
6.995,-4.19,-5.17,0
7.015,-4.19,-5.05,0
7.035,-4.19,-5.05,0
7.055,-4.31,-4.92,0
7.075,-4.19,-5.05,0
7.095,-4.19,-4.92,0
7.115,-4.07,-4.92,0
7.135,-4.07,-4.92,0
7.155,-4.07,-4.92,0
7.175,-4.07,-4.92,0
7.195,-4.07,-4.92,0
7.215,-4.19,-4.92,0
7.235,-4.31,-4.92,0
7.255,-4.07,-4.92,0
7.275,-3.82,-4.92,0
7.295,-3.95,-4.8,0
7.295,-3.95,-4.8,0
7.315,-3.95,-4.8,0
7.335,-3.95,-4.8,0
7.355,-4.07,-4.68,0
7.375,-4.07,-4.8,0
7.395,-4.07,-4.8,0
7.415,-3.82,-4.8,0
7.435,-3.95,-4.8,0
7.455,-3.95,-4.8,0
7.475,-3.95,-4.8,0
7.495,-3.82,-4.8,0
7.515,-3.82,-4.68,0
7.535,-3.95,-4.68,0
7.555,-3.82,-4.68,0
7.575,-3.7,-4.68,0
7.595,-3.7,-4.56,0
7.615,-3.7,-4.56,0
7.635,-3.82,-4.56,0
7.655,-3.95,-4.68,0
7.675,-4.07,-4.8,0
7.696,-5.05,-5.9,0
7.716,-6.02,-6.63,0
7.736,-6.63,-7.25,0
7.756,-6.88,-8.35,0
7.776,-7.49,-9.08,0
7.796,-8.47,-9.45,0
7.816,-9.2,-9.69,0
7.836,-9.45,-9.81,0
7.856,-9.57,-9.81,0
7.876,-9.69,-9.81,0
7.896,-9.69,-9.93,0
7.916,-9.81,-9.93,0
7.936,-9.93,-9.93,0
7.956,-9.93,-9.93,0
7.976,-9.93,-10.06,0
7.996,-9.93,-10.06,0
8.016,-9.93,-10.06,0
8.036,-10.06,-10.06,0
8.056,-10.06,-10.18,0
8.076,-10.18,-10.18,0
8.096,-10.06,-10.06,0
8.116,-10.06,-10.06,0
8.136,-10.06,-10.06,0
8.156,-10.06,-10.18,0
8.176,-10.06,-10.18,0
8.196,-10.18,-10.18,0
8.216,-10.18,-10.18,0
8.236,-10.18,-10.18,0
8.256,-10.18,-10.18,0
8.276,-10.18,-10.18,0
8.296,-10.06,-10.18,0
8.316,-10.06,-10.18,0
8.336,-10.06,-10.18,0
8.356,-10.18,-10.18,0
8.376,-10.18,-10.18,0
8.396,-10.18,-10.18,0
8.416,-10.18,-10.18,0
8.436,-10.18,-10.18,1
8.456,-10.18,-10.18,1
8.476,-10.18,-10.18,1
8.496,-10.18,-10.18,1
8.516,-10.18,-10.18,1
8.536,-10.18,-10.18,1
8.556,-10.18,-10.18,1
8.576,-10.3,-10.18,1
8.596,-10.3,-10.3,1
8.616,-10.18,-10.3,1
8.636,-10.3,-10.3,1
8.656,-10.3,-10.3,1
8.676,-10.3,-10.3,1
8.696,-10.3,-10.3,1
8.716,-9.81,-9.81,1
8.736,-9.2,-9.32,1
8.756,-8.71,-8.71,1
8.776,-8.22,-7.86,1
8.796,-7.61,-7.12,1
8.816,-6.88,-6.63,1
8.836,-6.39,-6.39,1
8.856,-5.9,-6.15,1
8.876,-5.29,-5.9,1
8.896,-5.05,-5.78,1
8.897,-4.92,-5.54,1
8.917,-4.8,-5.41,1
8.937,-4.68,-5.41,1
8.957,-4.68,-5.29,1
8.977,-4.8,-5.29,1
8.997,-4.68,-5.17,1
9.017,-4.31,-5.17,1
9.037,-4.19,-5.17,0
9.057,-4.19,-5.17,0
9.077,-4.19,-5.05,0
9.097,-4.19,-5.05,0
9.117,-4.19,-5.05,0
9.137,-4.31,-4.92,0
9.157,-4.31,-4.92,0
9.177,-4.19,-4.92,0
9.197,-4.07,-4.92,0
9.217,-4.07,-4.92,0
9.237,-4.07,-4.8,0
9.257,-4.19,-4.8,0
9.277,-4.19,-4.92,0
9.297,-4.31,-4.92,0
9.317,-4.31,-4.92,0
9.337,-4.19,-4.92,0
9.357,-3.95,-4.8,0
9.377,-3.95,-4.8,0
9.397,-4.07,-4.8,0
9.417,-4.07,-4.8,0
9.437,-4.07,-4.8,0
9.457,-4.07,-4.68,0
9.477,-4.19,-4.68,0
9.497,-4.19,-4.68,0
9.517,-3.95,-4.8,0
9.537,-3.95,-4.8,0
9.557,-3.95,-4.8,0
9.577,-4.07,-4.8,0
9.597,-3.95,-4.68,0
9.617,-3.95,-4.68,0
9.637,-3.95,-4.68,0
9.657,-3.82,-4.56,0
9.677,-3.82,-4.56,0
9.698,-3.82,-4.56,0
9.718,-3.82,-4.56,0
9.738,-3.95,-4.56,0
9.758,-4.07,-4.68,0
9.778,-4.8,-5.54,0
9.798,-5.9,-6.51,0
9.818,-6.63,-7.12,0
9.838,-7,-8.35,0
9.858,-7.61,-9.08,0
9.878,-8.59,-9.45,0
9.898,-9.2,-9.69,0
9.918,-9.57,-9.81,0
9.938,-9.69,-9.81,0
9.958,-9.81,-9.93,0
9.978,-9.93,-9.93,0
9.998,-10.06,-9.93,0
10.018,-10.06,-9.93,0
10.038,-10.06,-10.06,0
10.058,-10.06,-10.06,0
10.078,-10.06,-10.06,0
10.098,-10.06,-10.06,0
10.118,-10.06,-10.06,0
10.138,-10.18,-10.06,0
10.158,-10.18,-10.06,0
10.178,-10.18,-10.06,0
10.198,-10.18,-10.06,0
10.218,-10.18,-10.18,0
10.238,-10.18,-10.06,0
10.258,-10.18,-10.06,0
10.278,-10.18,-10.18,0
10.298,-10.18,-10.18,0
10.318,-10.18,-10.18,0
10.338,-10.18,-10.18,0
10.358,-10.18,-10.18,0
10.378,-10.06,-10.18,0
10.398,-10.18,-10.18,0
10.418,-10.18,-10.18,0
10.438,-10.3,-10.18,0
10.458,-10.18,-10.18,0
10.478,-10.18,-10.18,1
10.498,-10.18,-10.18,1
10.499,-10.18,-10.18,1
10.519,-10.18,-10.18,1
10.539,-10.18,-10.18,1
10.559,-10.18,-10.18,1
10.579,-10.3,-10.18,1
10.599,-10.3,-10.18,1
10.619,-10.3,-10.18,1
10.639,-10.3,-10.18,1
10.659,-10.3,-10.3,1
10.679,-10.3,-10.18,1
10.699,-10.3,-10.18,1
10.719,-10.3,-10.18,1
10.739,-9.69,-9.57,1
10.759,-9.08,-9.08,1
10.779,-8.59,-8.35,1
10.799,-7.98,-7.37,1
10.819,-7.12,-6.88,1
10.839,-6.51,-6.39,1
10.859,-6.15,-6.15,1
10.879,-5.54,-6.02,1
10.899,-5.17,-5.78,1
10.9,-4.92,-5.66,1
10.92,-4.8,-5.54,1
10.94,-4.68,-5.41,1
10.96,-4.68,-5.29,1
10.98,-4.68,-5.17,1
11,-4.8,-5.17,1
11.02,-4.56,-5.17,1
11.04,-4.19,-5.17,0
11.06,-4.19,-5.05,0
11.08,-4.07,-5.05,0
11.1,-4.19,-5.05,0
11.12,-4.07,-5.05,0
11.14,-4.19,-4.92,0
11.16,-4.19,-4.92,0
11.18,-4.07,-4.92,0
11.2,-3.95,-4.92,0
11.22,-4.07,-4.8,0
11.24,-4.07,-4.92,0
11.26,-4.07,-4.92,0
11.28,-4.19,-4.92,0
11.301,-4.19,-4.92,0
11.321,-4.19,-4.92,0
11.341,-3.95,-4.8,0
11.361,-3.95,-4.8,0
11.381,-3.95,-4.8,0
11.401,-4.07,-4.68,0
11.421,-3.95,-4.68,0
11.441,-4.07,-4.68,0
11.461,-4.19,-4.68,0
11.481,-4.19,-4.68,0
11.501,-3.95,-4.8,0
11.521,-4.07,-4.8,0
11.541,-3.95,-4.8,0
11.561,-4.07,-4.8,0
11.581,-3.95,-4.8,0
11.601,-3.95,-4.68,0
11.621,-3.95,-4.68,0
11.641,-3.95,-4.68,0
11.661,-3.82,-4.68,0
11.681,-3.82,-4.56,0
11.701,-3.95,-4.68,0
11.721,-4.07,-4.68,0
11.741,-4.19,-4.8,0
11.761,-5.17,-5.9,0
11.781,-6.15,-6.76,0
11.801,-6.76,-7.37,0
11.821,-7.12,-8.59,0
11.841,-7.86,-9.2,0
11.861,-8.83,-9.57,0
11.881,-9.32,-9.81,0
11.901,-9.57,-9.81,0
11.921,-9.57,-9.81,0
11.941,-9.81,-9.93,0
11.961,-9.93,-9.93,0
11.981,-9.93,-9.93,0
12.001,-9.93,-9.93,0
12.021,-9.93,-10.06,0
12.041,-10.06,-10.06,0
12.061,-10.06,-10.06,0
12.081,-10.06,-10.06,0
12.101,-10.18,-10.06,0
12.121,-10.18,-10.06,0
12.141,-10.18,-10.06,0
12.161,-10.18,-10.06,0
12.181,-10.18,-10.06,0
12.201,-10.06,-10.06,0
12.221,-10.18,-10.06,0
12.241,-10.18,-10.06,0
12.261,-10.18,-10.06,0
12.281,-10.18,-10.06,0
12.301,-10.18,-10.06,0
12.321,-10.18,-10.18,0
12.341,-10.18,-10.18,0
12.361,-10.18,-10.18,0
12.381,-10.18,-10.18,0
12.401,-10.18,-10.18,0
12.421,-10.18,-10.18,0
12.441,-10.18,-10.18,0
12.461,-10.18,-10.18,1
12.481,-10.18,-10.18,1
12.501,-10.18,-10.18,1
12.502,-10.18,-10.18,1
12.522,-10.18,-10.18,1
12.542,-10.3,-10.18,1
12.562,-10.18,-10.18,1
12.582,-10.18,-10.18,1
12.602,-10.18,-10.18,1
12.622,-10.18,-10.3,1
12.642,-10.3,-10.3,1
12.662,-10.3,-10.3,1
12.682,-10.3,-10.3,1
12.702,-10.18,-10.18,1
12.722,-9.57,-9.57,1
12.742,-8.96,-8.96,1
12.762,-8.47,-8.22,1
12.782,-7.86,-7.37,1
12.802,-7.12,-6.76,1
12.822,-6.51,-6.39,1
12.842,-6.02,-6.15,1
12.862,-5.54,-5.9,1
12.882,-5.05,-5.78,1
12.902,-4.92,-5.54,1
12.903,-4.8,-5.41,1
12.923,-4.68,-5.41,1
12.943,-4.68,-5.29,1
12.963,-4.68,-5.17,1
12.983,-4.8,-5.17,1
13.003,-4.56,-5.17,1
13.023,-4.19,-5.05,0
13.043,-4.19,-5.17,0
13.063,-4.19,-5.17,0
13.083,-4.19,-5.05,0
13.103,-4.19,-5.05,0
13.123,-4.31,-4.92,0
13.143,-4.31,-4.92,0
13.163,-4.07,-4.92,0
13.183,-4.07,-4.8,0
13.203,-4.07,-4.8,0
13.223,-4.07,-4.8,0
13.243,-4.19,-4.8,0
13.263,-4.19,-4.8,0
13.283,-4.31,-4.8,0
13.303,-4.31,-4.92,0
13.323,-3.95,-4.8,0
13.343,-3.82,-4.8,0
13.363,-3.95,-4.8,0
13.383,-3.95,-4.8,0
13.403,-3.95,-4.8,0
13.423,-4.07,-4.8,0
13.443,-4.19,-4.8,0
13.463,-4.07,-4.8,0
13.483,-3.82,-4.8,0
13.503,-3.95,-4.8,0
13.523,-3.82,-4.92,0
13.543,-3.95,-4.8,0
13.563,-3.95,-4.8,0
13.583,-3.95,-4.8,0
13.603,-4.07,-4.68,0
13.623,-3.95,-4.68,0
13.643,-3.82,-4.68,0
13.663,-3.7,-4.68,0
13.683,-3.82,-4.68,0
13.703,-3.95,-4.68,0
13.704,-4.19,-4.92,0
13.724,-5.29,-5.9,0
13.744,-6.27,-6.76,0
13.764,-6.88,-7.49,0
13.784,-7.25,-8.59,0
13.804,-8.1,-9.32,0
13.824,-8.96,-9.57,0
13.844,-9.45,-9.69,0
13.864,-9.57,-9.81,0
13.884,-9.69,-9.81,0
13.904,-9.93,-9.93,0
13.924,-9.93,-9.93,0
13.944,-10.06,-9.93,0
13.964,-9.93,-9.93,0
13.984,-10.06,-9.93,0
14.004,-10.06,-10.06,0
14.024,-9.93,-10.06,0
14.044,-10.06,-10.06,0
14.064,-10.18,-10.06,0
14.084,-10.18,-10.06,0
14.104,-10.18,-10.06,0
14.124,-10.18,-10.06,0
14.144,-10.06,-10.06,0
14.164,-10.06,-10.06,0
14.184,-10.06,-10.06,0
14.204,-10.18,-10.18,0
14.224,-10.18,-10.18,0
14.244,-10.18,-10.18,0
14.264,-10.18,-10.18,0
14.284,-10.18,-10.18,0
14.304,-10.06,-10.18,0
14.324,-10.06,-10.18,0
14.344,-10.3,-10.18,0
14.364,-10.3,-10.18,0
14.384,-10.3,-10.18,0
14.404,-10.3,-10.18,0
14.424,-10.3,-10.18,1
14.444,-10.18,-10.18,1
14.464,-10.18,-10.18,1
14.484,-10.18,-10.18,1
14.505,-10.3,-10.18,1
14.525,-10.18,-10.18,1
14.545,-10.3,-10.18,1
14.565,-10.3,-10.18,1
14.585,-10.18,-10.18,1
14.605,-10.3,-10.18,1
14.625,-10.3,-10.3,1
14.645,-10.3,-10.3,1
14.665,-10.3,-10.3,1
14.685,-10.18,-10.06,1
14.705,-9.57,-9.45,1
14.725,-8.96,-8.96,1
14.745,-8.47,-8.1,1
14.765,-7.86,-7.25,1
14.785,-7,-6.76,1
14.805,-6.39,-6.39,1
14.825,-6.02,-6.15,1
14.845,-5.54,-5.9,1
14.865,-5.05,-5.66,1
14.885,-4.92,-5.54,1
14.905,-4.68,-5.41,1
14.905,-4.68,-5.29,1
14.925,-4.56,-5.17,1
14.945,-4.68,-5.17,1
14.965,-4.8,-5.17,1
14.985,-4.44,-5.17,1
15.005,-4.07,-5.05,0
15.025,-4.07,-5.05,0
15.045,-4.07,-5.05,0
15.065,-4.19,-5.05,0
15.085,-4.19,-4.92,0
15.105,-4.31,-4.92,0
15.125,-4.31,-4.92,0
15.145,-4.19,-4.92,0
15.165,-4.07,-4.92,0
15.185,-4.07,-4.92,0
15.205,-4.07,-4.92,0
15.225,-4.19,-4.92,0
15.245,-4.19,-4.92,0
15.265,-4.31,-4.8,0
15.285,-4.31,-4.92,0
15.305,-3.95,-4.8,0
15.306,-3.95,-4.8,0
15.326,-3.95,-4.8,0
15.346,-3.95,-4.8,0
15.366,-3.95,-4.8,0
15.386,-4.07,-4.8,0
15.406,-4.19,-4.68,0
15.426,-4.19,-4.8,0
15.446,-3.95,-4.8,0
15.466,-3.95,-4.8,0
15.486,-3.95,-4.8,0
15.506,-3.82,-4.8,0
15.526,-3.95,-4.8,0
15.546,-3.95,-4.68,0
15.566,-4.07,-4.68,0
15.586,-3.82,-4.68,0
15.606,-3.58,-4.56,0
15.626,-3.58,-4.56,0
15.646,-3.7,-4.56,0
15.666,-3.82,-4.56,0
15.686,-4.19,-4.92,0
15.706,-5.29,-6.02,0
15.707,-6.27,-6.76,0
15.727,-6.76,-7.49,0
15.747,-7.25,-8.71,0
15.767,-8.1,-9.2,0
15.787,-8.96,-9.57,0
15.807,-9.32,-9.69,0
15.827,-9.57,-9.81,0
15.847,-9.69,-9.81,0
15.867,-9.93,-9.93,0
15.887,-9.93,-9.93,0
15.907,-10.18,-9.93,0
15.927,-10.06,-9.93,0
15.947,-10.06,-9.93,0
15.967,-10.06,-10.06,0
15.987,-10.06,-10.18,0
16.007,-10.18,-10.06,0
16.027,-10.18,-10.06,0
16.047,-10.18,-10.18,0
16.067,-10.18,-10.18,0
16.087,-10.18,-10.06,0
16.107,-10.18,-10.18,0
16.107,-10.18,-10.18,0
16.127,-10.18,-10.18,0
16.147,-10.18,-10.18,0
16.167,-10.18,-10.18,0
16.187,-10.18,-10.18,0
16.207,-10.18,-10.18,0
16.229,-10.18,-10.18,0
16.247,-10.06,-10.18,0
16.267,-10.06,-10.18,0
16.287,-10.18,-10.18,0
16.307,-10.3,-10.18,0
16.327,-10.18,-10.18,0
16.347,-10.18,-10.18,0
16.367,-10.18,-10.18,1
16.387,-10.18,-10.18,1
16.407,-10.18,-10.18,1
16.427,-10.18,-10.18,1
16.447,-10.18,-10.18,1
16.467,-10.3,-10.18,1
16.487,-10.3,-10.18,1
16.507,-10.3,-10.18,1
16.508,-10.3,-10.18,1
16.528,-10.3,-10.3,1
16.548,-10.3,-10.3,1
16.568,-10.3,-10.18,1
16.588,-10.3,-10.3,1
16.608,-10.06,-10.06,1
16.628,-9.45,-9.32,1
16.648,-8.83,-8.71,1
16.668,-8.35,-7.98,1
16.688,-7.61,-7.12,1
16.709,-6.88,-6.63,1
16.728,-6.39,-6.27,1
16.748,-5.9,-6.15,1
16.768,-5.41,-5.9,1
16.788,-5.05,-5.66,1
16.808,-4.92,-5.54,1
16.828,-4.8,-5.41,1
16.848,-4.68,-5.41,1
16.868,-4.68,-5.29,1
16.888,-4.8,-5.29,1
16.908,-4.8,-5.17,1
16.909,-4.31,-5.17,1
16.929,-4.19,-5.17,0
16.949,-4.19,-5.17,0
16.969,-4.07,-5.17,0
16.989,-4.19,-5.17,0
17.009,-4.19,-5.05,0
17.029,-4.31,-5.05,0
17.049,-4.31,-4.92,0
17.069,-4.07,-4.92,0
17.089,-3.95,-4.92,0
17.109,-4.07,-4.92,0
17.129,-4.07,-4.92,0
17.149,-4.19,-4.92,0
17.169,-4.31,-4.92,0
17.189,-4.31,-4.92,0
17.209,-4.19,-4.92,0
17.229,-3.95,-4.92,0
17.249,-3.95,-4.8,0
17.269,-3.95,-4.8,0
17.289,-4.07,-4.8,0
17.31,-4.07,-4.8,0
17.33,-4.19,-4.8,0
17.35,-4.31,-4.8,0
17.37,-4.19,-4.8,0
17.39,-4.07,-4.8,0
17.41,-4.07,-4.8,0
17.43,-4.07,-4.8,0
17.45,-4.07,-4.92,0
17.47,-4.07,-4.68,0
17.49,-3.95,-4.68,0
17.51,-4.07,-4.68,0
17.53,-3.95,-4.68,0
17.55,-3.82,-4.68,0
17.57,-3.82,-4.68,0
17.59,-3.95,-4.68,0
17.61,-3.95,-4.68,0
17.63,-4.56,-5.29,0
17.65,-5.66,-6.27,0
17.67,-6.51,-7,0
17.69,-6.88,-7.86,0
17.71,-7.37,-8.96,0
17.73,-8.35,-9.45,0
17.75,-8.96,-9.69,0
17.77,-9.32,-9.81,0
17.79,-9.45,-9.81,0
17.81,-9.69,-9.93,0
17.83,-9.81,-9.93,0
17.85,-9.93,-9.93,0
17.87,-9.93,-9.93,0
17.89,-9.93,-10.06,0
17.91,-9.93,-10.06,0
17.93,-9.93,-10.06,0
17.95,-9.93,-10.06,0
17.97,-10.06,-10.06,0
17.99,-10.18,-10.06,0
18.01,-10.18,-10.06,0
18.03,-10.18,-10.18,0
18.05,-10.18,-10.06,0
18.07,-10.06,-10.06,0
18.09,-10.18,-10.06,0
18.11,-10.18,-10.06,0
18.111,-10.18,-10.18,0
18.131,-10.18,-10.18,0
18.155,-10.18,-10.18,0
18.171,-10.18,-10.18,0
18.191,-10.18,-10.18,0
18.211,-10.06,-10.18,0
18.231,-10.18,-10.18,0
18.251,-10.18,-10.18,0
18.271,-10.3,-10.18,0
18.291,-10.18,-10.18,0
18.311,-10.18,-10.18,0
18.331,-10.18,-10.18,1
18.351,-10.18,-10.18,1
18.371,-10.18,-10.18,1
18.391,-10.18,-10.18,1
18.411,-10.18,-10.18,1
18.431,-10.18,-10.18,1
18.451,-10.18,-10.18,1
18.471,-10.18,-10.18,1
18.491,-10.18,-10.18,1
18.511,-10.18,-10.18,1
18.531,-10.3,-10.3,1
18.551,-10.3,-10.18,1
18.571,-10.3,-10.3,1
18.591,-10.06,-9.93,1
18.611,-9.32,-9.32,1
18.631,-8.71,-8.71,1
18.651,-8.35,-7.98,1
18.671,-7.61,-7.12,1
18.691,-6.88,-6.63,1
18.711,-6.39,-6.39,1
18.731,-5.9,-6.15,1
18.751,-5.41,-5.9,1
18.771,-5.05,-5.66,1
18.791,-4.92,-5.54,1
18.811,-4.8,-5.41,1
18.831,-4.68,-5.29,1
18.851,-4.68,-5.29,1
18.871,-4.8,-5.17,1
18.891,-4.68,-5.17,1
18.911,-4.44,-5.17,1
18.912,-4.19,-5.05,0
18.932,-4.19,-5.17,0
18.952,-4.07,-5.17,0
18.972,-4.19,-5.05,0
18.992,-4.31,-5.05,0
19.012,-4.31,-4.92,0
19.032,-4.31,-4.92,0
19.052,-4.07,-4.92,0
19.072,-4.07,-4.92,0
19.092,-4.07,-4.8,0
19.112,-4.07,-4.92,0
19.132,-4.19,-4.92,0
19.152,-4.31,-4.92,0
19.172,-4.31,-4.92,0
19.192,-4.19,-4.92,0
19.212,-3.95,-4.8,0
19.232,-3.95,-4.8,0
19.252,-3.95,-4.8,0
19.272,-3.95,-4.8,0
19.292,-3.95,-4.8,0
19.312,-4.07,-4.8,0
19.332,-4.07,-4.68,0
19.352,-4.07,-4.8,0
19.372,-3.95,-4.92,0
19.392,-3.95,-4.92,0
19.412,-3.95,-4.92,0
19.432,-3.95,-4.92,0
19.452,-3.95,-4.8,0
19.472,-3.95,-4.8,0
19.492,-4.07,-4.68,0
19.512,-3.95,-4.68,0
19.532,-3.82,-4.68,0
19.552,-3.7,-4.68,0
19.572,-3.95,-4.68,0
19.592,-3.95,-4.68,0
19.612,-4.56,-5.41,0
19.632,-5.78,-6.39,0
19.652,-6.51,-7,0
19.672,-7,-7.86,0
19.692,-7.37,-8.96,0
19.712,-8.47,-9.45,0
19.732,-9.08,-9.57,0
19.752,-9.45,-9.69,0
19.772,-9.57,-9.81,0
19.792,-9.69,-9.93,0
19.812,-9.81,-9.93,0
19.832,-9.93,-9.93,0
19.852,-9.93,-9.93,0
19.872,-9.93,-9.93,0
19.892,-10.06,-10.06,0
19.912,-9.93,-10.06,0
19.932,-10.06,-10.06,0
19.952,-10.06,-10.06,0
19.972,-10.18,-10.06,0
19.992,-10.06,-10.06,0
20.012,-10.18,-10.06,0
20.032,-10.06,-10.06,0
20.052,-10.06,-10.06,0
20.072,-10.06,-10.06,0
20.092,-10.18,-10.06,0
20.113,-10.18,-10.06,0
20.133,-10.18,-10.06,0
20.153,-10.18,-10.06,0
20.173,-10.18,-10.18,0
20.193,-10.18,-10.18,0
20.213,-10.06,-10.18,0
20.233,-10.18,-10.18,0
20.253,-10.18,-10.18,0
20.273,-10.3,-10.18,0
20.293,-10.3,-10.18,0
20.313,-10.18,-10.18,1
20.333,-10.18,-10.3,1
20.353,-10.18,-10.18,1
20.373,-10.18,-10.18,1
20.393,-10.3,-10.18,1
20.413,-10.3,-10.18,1
20.433,-10.18,-10.18,1
20.453,-10.3,-10.18,1
20.473,-10.3,-10.18,1
20.493,-10.3,-10.18,1
20.513,-10.3,-10.3,1
20.513,-10.3,-10.3,1
20.533,-10.3,-10.18,1
20.553,-10.3,-10.18,1
20.573,-9.93,-9.93,1
20.593,-9.32,-9.32,1
20.613,-8.71,-8.71,1
20.633,-8.35,-7.86,1
20.653,-7.61,-7.12,1
20.673,-6.88,-6.63,1
20.693,-6.27,-6.27,1
20.713,-5.9,-6.15,1
20.733,-5.41,-5.9,1
20.753,-5.05,-5.66,1
20.773,-4.8,-5.54,1
20.793,-4.8,-5.41,1
20.813,-4.68,-5.29,1
20.833,-4.68,-5.29,1
20.853,-4.8,-5.17,1
20.873,-4.68,-5.17,1
20.893,-4.44,-5.17,1
20.914,-4.19,-5.17,0
20.934,-4.19,-5.17,0
20.954,-4.19,-5.17,0
20.974,-4.19,-5.05,0
20.994,-4.31,-5.05,0
21.014,-4.31,-4.92,0
21.034,-4.31,-4.92,0
21.054,-4.19,-4.92,0
21.074,-4.07,-4.92,0
21.094,-4.07,-4.92,0
21.114,-4.07,-4.92,0
21.134,-4.19,-4.92,0
21.154,-4.19,-4.92,0
21.174,-4.31,-4.92,0
21.194,-4.19,-4.92,0
21.214,-4.07,-4.92,0
21.234,-3.95,-4.92,0
21.254,-3.95,-4.8,0
21.274,-3.95,-4.8,0
21.294,-4.07,-4.8,0
21.314,-4.19,-4.8,0
21.334,-4.19,-4.8,0
21.354,-4.19,-4.8,0
21.374,-3.95,-4.92,0
21.394,-3.95,-4.92,0
21.414,-3.95,-4.92,0
21.434,-3.82,-4.92,0
21.454,-3.95,-4.8,0
21.474,-3.95,-4.68,0
21.494,-3.95,-4.68,0
21.514,-3.82,-4.68,0
21.534,-3.7,-4.68,0
21.554,-3.7,-4.56,0
21.574,-3.82,-4.68,0
21.594,-3.82,-4.68,0
21.614,-4.44,-5.29,0
21.634,-5.66,-6.27,0
21.654,-6.51,-6.88,0
21.674,-7,-7.86,0
21.694,-7.37,-8.83,0
21.714,-8.47,-9.32,0
21.715,-9.2,-9.57,0
21.735,-9.57,-9.69,0
21.755,-9.69,-9.81,0
21.775,-9.81,-9.81,0
21.795,-9.93,-9.93,0
21.815,-9.93,-9.93,0
21.835,-10.06,-9.93,0
21.855,-10.06,-9.93,0
21.875,-10.06,-10.06,0
21.895,-10.06,-10.06,0
21.915,-10.06,-10.06,0
21.935,-10.18,-10.06,0
21.955,-10.18,-10.18,0
21.975,-10.18,-10.06,0
21.995,-10.18,-10.18,0
22.015,-10.18,-10.06,0
22.035,-10.18,-10.06,0
22.055,-10.18,-10.06,0
22.075,-10.18,-10.18,0
22.095,-10.18,-10.18,0
22.115,-10.18,-10.18,0
22.116,-10.18,-10.18,0
22.136,-10.18,-10.18,0
22.156,-10.06,-10.18,0
22.176,-10.06,-10.18,0
22.196,-10.18,-10.18,0
22.216,-10.18,-10.18,0
22.236,-10.18,-10.18,0
22.256,-10.18,-10.18,0
22.276,-10.18,-10.18,1
22.296,-10.18,-10.18,1
22.316,-10.18,-10.18,1
22.336,-10.18,-10.18,1
22.356,-10.18,-10.18,1
22.376,-10.18,-10.18,1
22.396,-10.18,-10.18,1
22.416,-10.18,-10.18,1
22.436,-10.18,-10.18,1
22.456,-10.18,-10.18,1
22.476,-10.3,-10.18,1
22.496,-10.3,-10.18,1
22.516,-10.3,-10.18,1
22.516,-10.3,-10.18,1
22.536,-9.93,-9.81,1
22.556,-9.2,-9.2,1
22.576,-8.71,-8.59,1
22.596,-8.22,-7.73,1
22.616,-7.49,-7,1
22.636,-6.76,-6.51,1
22.656,-6.27,-6.27,1
22.676,-5.78,-6.15,1
22.696,-5.41,-5.9,1
22.716,-5.05,-5.66,1
22.736,-4.8,-5.54,1
22.756,-4.8,-5.41,1
22.776,-4.68,-5.41,1
22.796,-4.68,-5.29,1
22.816,-4.8,-5.29,1
22.836,-4.68,-5.17,1
22.856,-4.44,-5.17,1
22.876,-4.19,-5.17,0
22.896,-4.07,-5.17,0
22.916,-4.07,-5.17,0
22.917,-4.07,-5.17,0
22.937,-4.31,-5.05,0
22.957,-4.31,-4.92,0
22.977,-4.31,-4.92,0
22.997,-4.19,-4.92,0
23.017,-4.07,-4.92,0
23.037,-4.07,-4.92,0
23.057,-4.07,-5.05,0
23.077,-4.19,-4.92,0
23.097,-4.31,-4.92,0
23.117,-4.31,-4.92,0
23.137,-4.19,-4.92,0
23.157,-4.07,-4.92,0
23.177,-3.95,-4.8,0
23.197,-4.07,-4.8,0
23.217,-4.07,-4.8,0
23.237,-4.19,-4.8,0
23.257,-4.31,-4.8,0
23.277,-4.19,-4.68,0
23.297,-4.19,-4.8,0
23.317,-4.07,-4.8,0
23.317,-3.95,-4.8,0
23.337,-3.95,-4.8,0
23.357,-3.95,-4.8,0
23.377,-4.07,-4.68,0
23.397,-3.95,-4.68,0
23.417,-3.95,-4.68,0
23.437,-3.95,-4.68,0
23.457,-3.82,-4.68,0
23.477,-3.82,-4.68,0
23.497,-3.82,-4.68,0
23.517,-3.95,-4.68,0
23.537,-4.68,-5.54,0
23.557,-5.9,-6.51,0
23.577,-6.51,-7.12,0
23.597,-7,-8.22,0
23.617,-7.49,-9.08,0
23.637,-8.59,-9.45,0
23.657,-9.08,-9.69,0
23.677,-9.45,-9.81,0
23.697,-9.57,-9.93,0
23.718,-9.69,-9.93,0
23.738,-9.81,-9.93,0
23.758,-9.93,-9.93,0
23.778,-9.93,-9.93,0
23.798,-9.93,-10.06,0
23.818,-9.93,-10.06,0
23.838,-9.93,-10.06,0
23.858,-10.06,-10.06,0
23.878,-10.18,-10.06,0
23.898,-10.18,-10.06,0
23.918,-10.18,-10.06,0
23.938,-10.18,-10.06,0
23.958,-10.18,-10.06,0
23.978,-10.18,-10.06,0
23.998,-10.18,-10.06,0
24.018,-10.18,-10.06,0
24.038,-10.18,-10.06,0
24.058,-10.18,-10.06,0
24.078,-10.18,-10.06,0
24.098,-10.18,-10.06,0
24.118,-10.18,-10.06,0
24.118,-10.18,-10.06,0
24.138,-10.18,-10.18,0
24.158,-10.18,-10.18,0
24.178,-10.18,-10.06,0
24.198,-10.18,-10.18,0
24.218,-10.18,-10.18,1
24.238,-10.18,-10.18,1
24.258,-10.18,-10.18,1
24.278,-10.18,-10.18,1
24.298,-10.18,-10.18,1
24.318,-10.3,-10.18,1
24.338,-10.18,-10.18,1
24.358,-10.18,-10.18,1
24.378,-10.18,-10.18,1
24.398,-10.18,-10.18,1
24.418,-10.3,-10.18,1
24.438,-10.3,-10.3,1
24.458,-10.3,-10.18,1
24.478,-10.3,-10.18,1
24.498,-9.81,-9.81,1
24.518,-9.2,-9.2,1
24.519,-8.71,-8.59,1
24.539,-8.22,-7.73,1
24.559,-7.49,-7,1
24.579,-6.76,-6.51,1
24.599,-6.27,-6.27,1
24.619,-5.78,-6.02,1
24.639,-5.41,-5.9,1
24.659,-5.05,-5.66,1
24.679,-4.92,-5.54,1
24.699,-4.8,-5.41,1
24.719,-4.68,-5.29,1
24.739,-4.68,-5.29,1
24.759,-4.8,-5.17,1
24.779,-4.68,-5.17,1
24.799,-4.44,-5.17,1
24.819,-4.31,-5.05,0
24.839,-4.07,-5.17,0
24.859,-4.19,-5.05,0
24.879,-4.19,-5.05,0
24.899,-4.31,-5.05,0
24.92,-4.31,-4.92,0
24.94,-4.19,-4.92,0
24.96,-4.19,-4.92,0
24.98,-4.07,-4.92,0
25,-4.07,-4.92,0
25.02,-4.07,-4.92,0
25.04,-4.07,-4.92,0
25.06,-4.19,-4.92,0
25.08,-4.19,-4.92,0
25.1,-4.07,-4.92,0
25.12,-4.07,-4.92,0
25.14,-3.95,-4.8,0
25.16,-3.95,-4.8,0
25.18,-3.95,-4.8,0
25.2,-4.07,-4.8,0
25.22,-4.19,-4.8,0
25.24,-4.07,-4.8,0
25.26,-4.19,-4.92,0
25.28,-4.07,-4.92,0
25.3,-4.07,-4.92,0
25.32,-4.07,-4.92,0
25.32,-4.07,-4.92,0
25.34,-4.07,-4.8,0
25.36,-4.07,-4.92,0
25.38,-4.07,-4.8,0
25.4,-4.07,-4.8,0
25.42,-3.95,-4.8,0
25.44,-3.82,-4.68,0
25.46,-3.95,-4.68,0
25.48,-4.07,-4.8,0
25.5,-4.8,-5.54,0
25.52,-6.02,-6.51,0
25.54,-6.63,-7.12,0
25.56,-7.12,-8.22,0
25.58,-7.61,-9.08,0
25.6,-8.59,-9.45,0
25.62,-9.2,-9.69,0
25.64,-9.57,-9.81,0
25.66,-9.69,-9.81,0
25.68,-9.81,-9.81,0
25.7,-9.93,-9.93,0
25.72,-9.93,-9.93,0
25.74,-9.93,-9.93,0
25.76,-9.93,-9.93,0
25.78,-10.06,-10.06,0
25.8,-10.06,-10.06,0
25.82,-10.06,-10.06,0
25.84,-10.06,-10.06,0
25.86,-10.06,-10.06,0
25.88,-10.06,-10.06,0
25.9,-10.06,-10.06,0
25.92,-10.06,-10.06,0
25.94,-10.06,-10.06,0
25.96,-10.18,-10.06,0
25.98,-10.18,-10.06,0
26,-10.18,-10.06,0
26.02,-10.18,-10.06,0
26.04,-10.18,-10.18,0
26.06,-10.18,-10.18,0
26.08,-10.18,-10.18,0
26.1,-10.18,-10.18,0
26.12,-10.18,-10.18,0
26.121,-10.3,-10.18,0
26.141,-10.3,-10.18,0
26.161,-10.18,-10.18,0
26.181,-10.18,-10.18,1
26.201,-10.18,-10.18,1
26.221,-10.18,-10.18,1
26.241,-10.18,-10.18,1
26.261,-10.18,-10.18,1
26.281,-10.18,-10.18,1
26.301,-10.18,-10.18,1
26.321,-10.18,-10.18,1
26.341,-10.18,-10.18,1
26.361,-10.3,-10.18,1
26.381,-10.3,-10.18,1
26.401,-10.3,-10.3,1
26.421,-10.3,-10.18,1
26.441,-10.3,-10.18,1
26.461,-9.81,-9.69,1
26.481,-9.2,-9.2,1
26.501,-8.59,-8.59,1
26.521,-8.22,-7.61,1
26.521,-7.49,-6.88,1
26.541,-6.63,-6.51,1
26.561,-6.27,-6.27,1
26.581,-5.78,-6.02,1
26.601,-5.41,-5.78,1
26.621,-5.05,-5.66,1
26.641,-4.8,-5.54,1
26.661,-4.8,-5.41,1
26.681,-4.68,-5.29,1
26.701,-4.68,-5.29,1
26.721,-4.8,-5.17,1
26.741,-4.68,-5.17,1
26.761,-4.44,-5.17,0
26.781,-4.31,-5.05,0
26.801,-4.19,-5.17,0
26.821,-4.19,-5.17,0
26.841,-4.19,-5.05,0
26.861,-4.31,-5.05,0
26.881,-4.31,-4.92,0
26.901,-4.31,-4.92,0
26.922,-4.19,-4.92,0
26.942,-4.07,-4.92,0
26.962,-4.07,-4.92,0
26.982,-4.07,-4.92,0
27.002,-4.07,-4.92,0
27.022,-4.19,-4.92,0
27.042,-4.31,-4.92,0
27.062,-4.19,-4.92,0
27.082,-4.07,-4.92,0
27.102,-3.95,-4.92,0
27.122,-3.95,-4.8,0
27.142,-3.95,-4.8,0
27.162,-3.95,-4.8,0
27.182,-4.19,-4.8,0
27.202,-4.19,-4.8,0
27.222,-4.07,-4.8,0
27.242,-4.07,-4.8,0
27.262,-3.95,-4.92,0
27.282,-3.95,-4.92,0
27.302,-3.95,-4.8,0
27.322,-3.82,-4.8,0
27.342,-4.07,-4.68,0
27.362,-3.95,-4.68,0
27.382,-3.82,-4.68,0
27.402,-3.82,-4.68,0
27.422,-3.7,-4.68,0
27.442,-3.82,-4.68,0
27.462,-3.95,-4.68,0
27.482,-4.8,-5.54,0
27.502,-6.02,-6.51,0
27.522,-6.76,-7.12,0
27.542,-7.12,-8.1,0
27.562,-7.73,-8.96,0
27.582,-8.71,-9.45,0
27.602,-9.2,-9.57,0
27.622,-9.57,-9.69,0
27.642,-9.69,-9.81,0
27.662,-9.81,-9.81,0
27.682,-9.93,-9.81,0
27.702,-9.93,-9.93,0
27.722,-9.93,-9.93,0
27.742,-9.93,-9.93,0
27.762,-10.06,-10.06,0
27.782,-9.93,-10.06,0
27.802,-10.06,-10.06,0
27.822,-10.06,-10.06,0
27.842,-10.06,-10.06,0
27.862,-10.06,-10.06,0
27.882,-10.06,-10.06,0
27.902,-10.06,-10.06,0
27.922,-10.06,-10.06,0
27.942,-10.06,-10.06,0
27.962,-10.18,-10.06,0
27.982,-10.18,-10.06,0
28.002,-10.06,-10.06,0
28.022,-10.06,-10.18,0
28.042,-10.18,-10.18,0
28.062,-10.18,-10.06,0
28.082,-10.06,-10.18,0
28.102,-10.18,-10.06,0
28.122,-10.18,-10.18,0
28.123,-10.18,-10.18,0
28.143,-10.18,-10.18,0
28.163,-10.18,-10.18,1
28.183,-10.18,-10.18,1
28.203,-10.18,-10.18,1
28.223,-10.18,-10.18,1
28.243,-10.18,-10.18,1
28.263,-10.18,-10.18,1
28.283,-10.18,-10.18,1
28.303,-10.18,-10.18,1
28.323,-10.3,-10.18,1
28.343,-10.3,-10.18,1
28.363,-10.3,-10.18,1
28.383,-10.3,-10.18,1
28.403,-10.3,-10.18,1
28.423,-10.3,-10.18,1
28.443,-9.81,-9.69,1
28.463,-9.2,-9.2,1
28.483,-8.59,-8.47,1
28.503,,,
28.523,-8.1,-7.61,1
28.526,-7.37,-6.88,1
28.547,-6.63,-6.51,1
28.567,,,
28.586,-6.15,-6.27,1
28.606,-5.66,-6.02,1
28.626,-5.29,-5.9,1
28.646,-5.05,-5.66,1
28.668,-4.92,-5.54,1
28.686,-4.8,-5.41,1
28.706,-4.68,-5.41,1
28.726,-4.68,-5.29,1
28.746,-4.8,-5.29,1
28.766,,,
28.786,-4.68,-5.17,1
28.806,-4.44,-5.17,0
28.826,-4.31,-5.17,0
28.846,-4.07,-5.17,0
28.866,-4.19,-5.17,0
28.886,-4.19,-5.17,0
28.906,-4.31,-5.05,0
28.927,-4.31,-5.05,0
28.947,-4.19,-4.92,0
28.967,-4.19,-4.92,0
28.987,-4.19,-4.92,0
29.007,-4.07,-4.92,0
29.03,-4.19,-4.92,0
29.05,-4.19,-4.92,0
29.071,-4.31,-4.92,0
29.091,,,
29.107,-4.44,-4.92,0
29.127,-4.31,-4.92,0
29.147,-4.19,-4.92,0
29.167,-4.07,-4.92,0
29.187,-4.07,-4.8,0
29.207,-4.07,-4.8,0
29.227,-4.07,-4.8,0
29.247,-4.31,-4.8,0
29.267,-4.19,-4.8,0
29.292,-4.19,-4.8,0
29.313,-4.19,-4.8,0
29.333,-4.07,-4.92,0
29.357,-4.07,-4.92,0
29.378,-3.95,-4.8,0
29.398,-4.07,-4.8,0
29.423,-4.07,-4.68,0
29.443,-3.95,-4.68,0
29.464,-3.95,-4.68,0
29.489,-3.82,-4.68,0
29.509,-3.82,-4.68,0
29.53,-3.82,-4.68,0
29.554,-3.95,-4.8,0
29.574,-4.8,-5.66,0
29.595,,,
29.595,,,
29.613,-5.9,-6.63,0
29.633,-6.63,-7.12,0
29.653,-7,-8.22,0
29.673,-7.61,-9.08,0
29.693,-8.59,-9.45,0
29.713,-9.2,-9.69,0
29.734,-9.45,-9.81,0
29.754,-9.69,-9.81,0
29.774,-9.81,-9.93,0
29.794,,,
29.814,-9.93,-9.93,0
29.834,-9.93,-9.93,0
29.854,-9.93,-9.93,0
29.874,-9.93,-10.06,0
29.894,-10.06,-10.06,0
29.914,-10.06,-10.06,0
29.934,-10.06,-10.06,0
29.954,,,
29.974,-10.18,-10.18,0
29.994,-10.18,-10.18,0
30.014,-10.18,-10.06,0
30.034,-10.18,-10.18,0
30.054,-10.18,-10.06,0
30.074,-10.18,-10.06,0
30.099,-10.18,-10.18,0
30.119,,,
30.134,-10.18,-10.06,0
30.154,-10.18,-10.06,0
30.174,-10.18,-10.06,0
30.194,-10.18,-10.18,0
30.217,-10.18,-10.06,0
30.242,-10.18,-10.06,0
30.267,-10.18,-10.06,0
30.287,,,
30.294,-10.18,-10.06,0
30.314,-10.18,-10.18,0
30.336,-10.18,-10.18,0
30.361,-10.18,-10.18,0
30.385,-10.18,-10.18,1
30.41,-10.18,-10.18,1
30.431,,,
30.434,,,
30.454,-10.18,-10.18,1
30.474,-10.18,-10.18,1
30.494,-10.18,-10.18,1
30.514,-10.18,-10.18,1
30.534,-10.18,-10.18,1
30.554,-10.18,-10.18,1
30.578,-10.18,-10.18,1
30.599,,,
30.614,-10.18,-10.18,1
30.634,-10.3,-10.18,1
30.654,-10.3,-10.3,1
30.674,-10.3,-10.18,1
30.697,-10.3,-10.3,1
30.721,-9.69,-9.69,1
30.742,-9.08,-9.08,1
30.762,,,
30.774,-8.59,-8.47,1
30.794,-8.1,-7.49,1
30.814,-7.37,-6.88,1
30.834,-6.63,-6.51,1
30.854,-6.15,-6.27,1
30.874,-5.66,-6.15,1
30.894,,,
30.914,-5.29,-5.9,1
30.934,-5.05,-5.66,1
30.954,-4.92,-5.54,1
30.974,-4.68,-5.41,1
30.994,-4.68,-5.29,1
31.014,-4.68,-5.29,1
31.034,-4.8,-5.17,1
31.054,-4.68,-5.17,1
31.074,-4.44,-5.17,0
31.094,-4.31,-5.17,0
31.114,-4.19,-5.17,0
31.135,-4.19,-5.17,0
31.156,,,
31.174,-4.19,-5.05,0
31.194,-4.31,-5.05,0
31.214,-4.31,-4.92,0
31.234,-4.19,-4.92,0
31.254,-4.19,-4.8,0
31.274,-4.07,-4.92,0
31.294,-4.07,-4.92,0
31.314,-4.07,-4.92,0
31.334,-4.07,-4.92,0
31.354,,,
31.374,-4.19,-4.92,0
31.394,-4.31,-4.92,0
31.414,-4.07,-4.92,0
31.434,-4.07,-4.92,0
31.454,-3.95,-4.8,0
31.474,-3.95,-4.8,0
31.494,-4.07,-4.8,0
31.514,-4.07,-4.8,0
31.534,-4.19,-4.8,0
31.554,-4.19,-4.8,0
31.574,-4.19,-4.92,0
31.594,-4.19,-4.92,0
31.618,-4.07,-4.92,0
31.639,-4.07,-4.92,0
31.659,,,
31.674,-4.07,-4.92,0
31.694,-4.07,-4.8,0
31.714,-4.07,-4.8,0
31.734,-3.95,-4.8,0
31.755,-4.07,-4.68,0
31.775,-3.95,-4.68,0
31.795,-3.82,-4.68,0
31.815,-3.95,-4.8,0
31.836,-4.07,-4.8,0
31.856,,,
31.875,-5.05,-5.78,0
31.895,-6.15,-6.63,0
31.915,-6.76,-7.25,0
31.935,-7.12,-8.35,0
31.955,-7.73,-9.08,0
31.975,-8.71,-9.45,0
31.995,-9.32,-9.69,0
32.015,-9.57,-9.81,0
32.035,-9.69,-9.81,0
32.055,,,
32.075,-9.81,-9.93,0
32.095,-9.93,-9.93,0
32.115,-9.93,-9.93,0
32.135,-9.93,-9.93,0
32.155,-9.93,-9.93,0
32.163,-9.93,-9.93,0
32.183,,,
32.203,-9.93,-10.06,0
32.223,-10.06,-10.06,0
32.243,-10.06,-10.06,0
32.263,-10.18,-10.06,0
32.283,-10.18,-10.06,0
32.303,,,
32.323,-10.06,-10.06,0
32.343,-10.06,-10.06,0
32.363,-10.18,-10.06,0
32.383,-10.18,-10.06,0
32.403,-10.18,-10.06,0
32.425,-10.18,-10.18,0
32.446,,,
32.463,-10.18,-10.18,0
32.483,-10.18,-10.18,0
32.503,-10.18,-10.18,0
32.523,-10.18,-10.18,0
32.544,-10.18,-10.18,0
32.569,-10.18,-10.18,0
32.593,-10.3,-10.18,0
32.614,,,
32.629,-10.18,-10.18,0
32.65,-10.18,-10.18,0
32.669,-10.18,-10.18,1
32.689,-10.18,-10.18,1
32.712,-10.18,-10.18,1
32.736,-10.18,-10.18,1
32.761,-10.18,-10.18,1
32.782,,,
32.789,-10.18,-10.18,1
32.811,-10.18,-10.18,1
32.831,-10.18,-10.18,1
32.855,-10.3,-10.18,1
32.88,-10.18,-10.18,1
32.904,-10.3,-10.18,1
32.925,,,
32.93,-10.3,-10.18,1
32.95,,,
32.969,-10.3,-10.18,1
32.975,-10.3,-10.18,1
32.999,-9.81,-9.69,1
33.019,,,
33.035,-9.2,-9.2,1
33.055,-8.59,-8.47,1
33.075,-8.22,-7.61,1
33.095,-7.37,-6.88,1
33.115,-6.63,-6.51,1
33.135,-6.15,-6.27,1
33.155,-5.66,-6.02,1
33.175,-5.29,-5.78,1
33.195,-5.17,-5.66,1
33.216,,,
33.235,-4.92,-5.54,1
33.255,-4.8,-5.41,1
33.275,-4.68,-5.41,1
33.295,-4.68,-5.17,1
33.315,-4.8,-5.17,1
33.335,-4.68,-5.17,1
33.355,-4.44,-5.17,0
33.375,-4.44,-5.17,0
33.392,-4.19,-5.17,0
33.412,,,
33.432,-4.19,-5.17,0
33.452,-4.19,-5.05,0
33.472,-4.31,-5.05,0
33.492,-4.44,-5.05,0
33.512,-4.31,-5.05,0
33.532,-4.31,-4.92,0
33.552,-4.19,-4.92,0
33.572,-4.07,-4.92,0
33.593,-4.07,-4.92,0
33.613,-4.19,-4.92,0
33.633,-4.31,-4.92,0
33.654,-4.31,-5.05,0
33.679,-4.19,-4.92,0
33.699,-4.07,-4.92,0
33.719,-4.07,-4.92,0
33.744,-3.95,-4.92,0
33.765,-3.95,-4.92,0
33.785,-4.07,-4.8,0
33.81,-4.19,-4.8,0
33.83,-4.19,-4.8,0
33.851,,,
33.87,-4.07,-4.92,0
33.89,-4.07,-4.92,0
33.91,-3.95,-4.92,0
33.93,-3.82,-5.05,0
33.95,-3.95,-4.92,0
33.97,-3.95,-4.8,0
33.99,-4.07,-4.8,0
34.01,-4.07,-4.68,0
34.03,-3.95,-4.68,0
34.05,,,
34.07,-3.95,-4.68,0
34.09,-3.82,-4.68,0
34.11,-3.95,-4.68,0
34.13,-4.07,-4.68,0
34.15,-5.05,-5.54,0
34.17,-6.15,-6.51,0
34.19,-6.76,-7.12,0
34.211,-7.12,-8.1,0
34.231,-7.73,-8.96,0
34.251,-8.71,-9.45,0
34.271,-9.32,-9.57,0
34.291,-9.69,-9.69,0
34.311,,,
34.331,-9.69,-9.81,0
34.351,-9.81,-9.81,0
34.371,-9.93,-9.93,0
34.391,-9.93,-9.93,0
34.411,-9.93,-9.93,0
34.431,-9.93,-9.93,0
34.451,-10.06,-10.06,0
34.471,-10.06,-10.06,0
34.491,-10.06,-10.18,0
34.514,-10.18,-10.18,0
34.539,-10.18,-10.06,0
34.563,-10.18,-10.06,0
34.588,-10.06,-10.06,0
34.609,,,
34.611,,,
34.611,,,
34.631,-10.06,-10.06,0
34.651,-10.06,-10.06,0
34.671,-10.06,-10.06,0
34.691,-10.18,-10.06,0
34.711,-10.18,-10.18,0
34.731,-10.18,-10.18,0
34.752,,,
34.771,-10.06,-10.18,0
34.791,-10.18,-10.18,0
34.811,-10.18,-10.18,0
34.831,-10.18,-10.18,0
34.851,-10.18,-10.18,0
34.874,-10.18,-10.18,0
34.899,-10.3,-10.18,0
34.92,,,
34.931,-10.18,-10.18,0
34.951,-10.18,-10.18,1
34.971,-10.18,-10.18,1
34.993,-10.18,-10.18,1
35.018,-10.18,-10.18,1
35.042,-10.3,-10.18,1
35.067,-10.18,-10.18,1
35.088,,,
35.098,-10.18,-10.18,1
35.118,-10.3,-10.18,1
35.138,-10.3,-10.18,1
35.161,-10.3,-10.18,1
35.186,-10.3,-10.18,1
35.211,-10.3,-10.3,1
35.231,,,
35.238,-10.3,-10.3,1
35.258,,,
35.278,-10.3,-10.3,1
35.298,-9.81,-9.69,1
35.318,-9.08,-9.08,1
35.338,-8.59,-8.47,1
35.358,-8.22,-7.49,1
35.378,-7.37,-6.88,1
35.398,-6.63,-6.51,1
35.419,-6.15,-6.27,1
35.439,-5.54,-6.02,1
35.459,-5.29,-5.9,1
35.479,-5.05,-5.66,1
35.501,-4.8,-5.54,1
35.522,-4.8,-5.41,1
35.542,-4.68,-5.29,1
35.567,-4.56,-5.29,1
35.587,-4.8,-5.17,1
35.608,-4.68,-5.17,1
35.632,-4.44,-5.17,0
35.653,-4.31,-5.17,0
35.673,,,
35.679,-4.19,-5.17,0
35.699,-4.19,-5.17,0
35.719,-4.07,-5.05,0
35.739,,,
35.759,-4.31,-5.05,0
35.779,-4.31,-4.92,0
35.799,-4.19,-4.92,0
35.819,-4.19,-4.92,0
35.829,-4.19,-4.92,0
35.849,-4.07,-4.8,0
35.87,,,
35.889,-4.19,-4.92,0
35.909,-4.19,-4.92,0
35.929,-4.31,-4.92,0
35.949,-4.19,-4.92,0
35.969,-4.19,-4.92,0
35.989,-4.07,-4.8,0
36.009,-3.95,-4.8,0
36.029,-3.95,-4.8,0
36.049,-3.95,-4.68,0
36.069,,,
36.089,-4.07,-4.68,0
36.109,-4.19,-4.68,0
36.129,-4.19,-4.8,0
36.149,-4.07,-4.68,0
36.169,-4.07,-4.68,0
36.19,-4.07,-4.8,0
36.209,-3.95,-4.8,0
36.229,-3.95,-4.8,0
36.249,-3.95,-4.68,0
36.269,-3.95,-4.68,0
36.289,-3.82,-4.68,0
36.309,-3.82,-4.68,0
36.329,,,
36.349,-3.82,-4.68,0
36.37,-3.7,-4.68,0
36.389,-3.82,-4.68,0
36.409,-3.95,-4.8,0
36.429,-4.8,-5.78,0
36.449,-6.02,-6.63,0
36.469,-6.63,-7.25,0
36.489,-7,-8.47,0
36.509,-7.73,-9.2,0
36.529,-8.71,-9.57,0
36.55,-9.32,-9.69,0
36.573,-9.69,-9.81,0
36.595,-9.69,-9.93,0
36.615,-9.81,-9.93,0
36.636,-9.93,-9.93,0
36.66,-9.93,-9.93,0
36.681,-10.06,-9.93,0
36.701,,,
36.716,-10.06,-10.06,0
36.736,-10.06,-10.06,0
36.756,-10.06,-10.06,0
36.776,-10.18,-10.06,0
36.8,-10.18,-10.06,0
36.824,-10.18,-10.06,0
36.849,-10.18,-10.06,0
36.869,,,
36.876,-10.18,-10.06,0
36.896,,,
36.916,-10.18,-10.06,0
36.936,-10.18,-10.06,0
36.956,-10.18,-10.06,0
36.976,-10.18,-10.06,0
36.996,-10.18,-10.18,0
37.017,-10.18,-10.18,0
37.038,,,
37.058,-10.18,-10.18,0
37.078,-10.18,-10.18,0
37.098,-10.18,-10.18,0
37.118,-10.18,-10.18,0
37.138,-10.18,-10.18,0
37.16,-10.18,-10.18,0
37.18,,,
37.198,-10.18,-10.18,0
37.218,-10.18,-10.18,0
37.238,-10.18,-10.18,1
37.258,-10.18,-10.18,1
37.279,-10.18,-10.18,1
37.303,-10.18,-10.18,1
37.328,-10.3,-10.18,1
37.348,,,
37.358,-10.18,-10.3,1
37.378,-10.3,-10.3,1
37.398,-10.3,-10.18,1
37.422,-10.3,-10.3,1
37.447,-10.3,-10.3,1
37.472,-10.3,-10.3,1
37.492,,,
37.507,-10.3,-10.3,1
37.527,-10.3,-10.3,1
37.547,-10.18,-10.18,1
37.567,-9.69,-9.57,1
37.587,,,
37.607,-9.08,-9.08,1
37.627,-8.59,-8.35,1
37.647,-8.1,-7.37,1
37.667,-7.25,-6.76,1
37.687,-6.51,-6.39,1
37.707,-6.02,-6.27,1
37.727,-5.66,-6.02,1
37.747,-5.17,-5.78,1
37.767,-5.05,-5.54,1
37.787,-4.8,-5.41,1
37.807,-4.68,-5.41,1
37.828,-4.56,-5.29,1
37.849,,,
37.869,-4.68,-5.17,1
37.889,-4.68,-5.05,1
37.91,-4.56,-5.05,1
37.93,-4.31,-5.05,0
37.949,-4.19,-5.05,0
37.969,-4.19,-5.05,0
37.989,-4.07,-5.05,0
38.009,-4.07,-5.05,0
38.029,-4.19,-4.92,0
38.049,-4.19,-4.92,0
38.069,-4.07,-4.8,0
38.09,-4.07,-4.8,0
38.114,-3.95,-4.8,0
38.135,-3.95,-4.8,0
38.155,-4.07,-4.8,0
38.18,-4.07,-4.8,0
38.2,-4.19,-4.8,0
38.221,-4.07,-4.8,0
38.246,-4.07,-4.8,0
38.267,-3.95,-4.68,0
38.287,,,
38.307,-3.82,-4.68,0
38.327,-3.82,-4.68,0
38.347,-3.82,-4.68,0
38.367,-3.95,-4.68,0
38.387,-4.07,-4.68,0
38.407,-3.95,-4.68,0
38.427,-3.95,-4.68,0
38.447,-3.95,-4.68,0
38.467,-3.82,-4.8,0
38.487,,,
38.507,-3.82,-4.68,0
38.527,-3.82,-4.56,0
38.547,-3.7,-4.56,0
38.567,-3.82,-4.56,0
38.587,-3.7,-4.56,0
38.607,-3.7,-4.56,0
38.627,-3.58,-4.44,0
38.647,-3.58,-4.44,0
38.667,-3.7,-4.44,0
38.687,-3.95,-4.68,0
38.707,-5.05,-5.78,0
38.727,-6.02,-6.63,0
38.747,,,
38.767,-6.63,-7.37,0
38.787,-7.12,-8.59,0
38.807,-7.98,-9.2,0
38.827,-8.83,-9.57,0
38.847,-9.45,-9.81,0
38.867,-9.69,-9.93,0
38.887,-9.69,-9.93,0
38.907,-9.93,-10.06,0
38.927,-10.06,-10.06,0
38.947,-10.06,-10.06,0
38.97,-10.06,-10.06,0
38.995,-10.18,-10.18,0
39.019,-10.18,-10.18,0
39.044,-10.18,-10.18,0
39.065,,,
39.067,,,
39.087,-10.3,-10.3,0
39.107,-10.3,-10.3,0
39.127,-10.3,-10.3,0
39.147,-10.3,-10.18,0
39.167,-10.18,-10.3,0
39.187,-10.3,-10.3,0
39.212,-10.3,-10.3,0
39.233,,,
39.247,-10.3,-10.3,0
39.267,-10.3,-10.3,0
39.287,-10.3,-10.3,0
39.307,-10.3,-10.3,0
39.331,-10.3,-10.3,0
39.355,-10.3,-10.3,0
39.376,,,
39.387,-10.3,-10.3,0
39.407,-10.3,-10.3,0
39.427,-10.42,-10.3,0
39.45,-10.42,-10.3,0
39.474,-10.42,-10.3,0
39.499,-10.3,-10.3,0
39.523,-10.3,-10.3,1
39.544,,,
39.554,-10.3,-10.3,1
39.574,-10.3,-10.42,1
39.594,-10.3,-10.42,1
39.618,-10.3,-10.3,1
39.642,-10.3,-10.3,1
39.667,-10.3,-10.42,1
39.691,-10.42,-10.42,1
39.712,,,
39.714,,,
39.734,-10.42,-10.42,1
39.754,-10.42,-10.42,1
39.774,-10.42,-10.42,1
39.794,-10.42,-10.42,1
39.814,-10.42,-10.42,1
39.835,-10.18,-10.06,1
39.855,,,
39.874,-9.45,-9.57,1
39.88,-8.96,-8.83,1
39.9,-8.47,-7.98,1
39.921,,,
39.94,-7.73,-7.12,1
39.96,-6.88,-6.63,1
39.98,-6.27,-6.39,1
40,-5.9,-6.15,1
40.02,-5.41,-6.02,1
40.04,-5.17,-5.78,1
40.06,-4.92,-5.66,1
40.08,-4.8,-5.41,1
40.1,-4.68,-5.29,1
40.121,-4.68,-5.29,1
40.142,-4.68,-5.17,1
40.162,-4.68,-5.17,1
40.187,-4.44,-5.17,1
40.207,-4.31,-5.05,0
40.228,-4.19,-5.17,0
40.252,-4.19,-5.17,0
40.273,-4.19,-5.05,0
40.294,,,
40.314,-4.19,-5.05,0
40.334,-4.31,-4.92,0
40.354,-4.19,-4.92,0
40.374,-4.19,-4.92,0
40.394,-4.07,-4.92,0
40.414,-4.07,-4.92,0
40.434,-4.07,-4.92,0
40.454,-4.07,-4.92,0
40.474,-4.19,-4.8,0
40.494,-4.31,-4.92,0
40.514,-4.19,-4.8,0
40.535,-4.07,-4.8,0
40.555,,,
40.574,-3.95,-4.8,0
40.594,-3.95,-4.8,0
40.614,-3.95,-4.68,0
40.634,-3.95,-4.68,0
40.654,-4.19,-4.68,0
40.674,-4.07,-4.68,0
40.694,-4.07,-4.68,0
