Time (s),Pressure 1 (kPa),Pressure 2 (kPa),Switch State
0.085,-7.61,-7.86,1
0.105,-7.61,-7.86,1
0.125,-7.61,-7.86,1
0.145,-7.61,-7.86,1
0.165,-7.61,-7.86,1
0.185,-7.61,-7.86,1
0.205,-7.61,-7.86,1
0.225,-7.61,-7.86,1
0.245,-7.49,-7.86,1
0.265,-7.61,-7.86,1
0.285,-7.61,-7.86,1
0.305,-7.61,-7.86,1
0.325,-7.49,-7.86,1
0.345,-7.61,-7.86,1
0.365,-7.61,-7.86,1
0.385,-7.61,-7.86,1
0.405,-7.61,-7.86,1
0.425,-7.61,-7.86,1
0.445,-7.49,-7.86,1
0.465,-7.61,-7.86,1
0.485,-7.61,-7.86,1
0.505,-7.49,-7.86,1
0.525,-7.61,-7.86,1
0.545,-7.49,-7.86,1
0.565,-7.49,-7.98,1
0.585,-7.49,-7.86,1
0.605,-7.49,-7.86,1
0.625,-7.49,-7.86,1
0.645,-7.49,-7.86,1
0.665,-7.49,-7.86,1
0.685,-7.61,-7.86,1
0.705,-7.49,-7.86,1
0.725,-7.49,-7.86,1
0.745,-7.49,-7.86,1
0.765,-7.61,-7.86,1
0.785,-7.61,-7.86,1
0.805,-7.61,-7.86,1
0.825,-7.61,-7.86,1
0.845,-7.61,-7.86,1
0.865,-7.49,-7.86,1
0.886,-7.49,-7.86,1
0.906,-7.49,-7.86,1
0.926,-7.49,-7.86,1
0.946,-7.49,-7.86,1
0.966,-7.49,-7.98,1
0.986,-7.49,-7.86,1
1.006,-7.49,-7.98,1
1.026,-7.49,-7.86,1
1.046,-7.49,-7.86,1
1.066,-7.49,-7.98,1
1.086,-7.61,-7.86,1
1.106,-7.49,-7.86,1
1.126,-7.49,-7.86,1
1.146,-7.61,-7.86,1
1.166,-7.61,-7.86,1
1.186,-7.49,-7.86,1
1.206,-7.49,-7.86,1
1.226,-7.61,-7.86,1
1.246,-7.49,-7.86,1
1.266,-7.61,-7.86,1
1.286,-7.61,-7.86,1
1.286,-7.49,-7.86,1
1.306,-7.49,-7.86,1
1.326,-7.49,-7.86,1
1.346,-7.61,-7.86,1
1.366,-7.61,-7.86,1
1.386,-7.61,-7.98,1
1.406,-7.61,-7.86,1
1.426,-7.61,-7.86,1
1.446,-7.61,-7.98,1
1.466,-7.61,-7.86,1
1.487,-7.49,-7.98,1
1.506,-7.61,-7.86,1
1.526,-7.49,-7.98,1
1.546,-7.61,-7.86,1
1.566,-7.61,-7.86,1
1.586,-7.61,-7.86,1
1.606,-7.61,-7.86,1
1.626,-7.49,-7.86,1
1.646,-7.49,-7.86,1
1.666,-7.61,-7.86,1
1.686,-7.49,-7.86,1
1.687,-7.61,-7.86,1
1.707,-7.49,-7.86,1
1.728,-7.61,-7.86,1
1.747,-7.61,-7.98,1
1.767,-7.49,-7.86,1
1.787,-7.61,-7.86,1
1.807,-7.61,-7.86,1
1.827,-7.61,-7.86,1
1.847,-7.61,-7.98,1
1.867,-7.61,-7.86,1
1.887,-7.49,-7.86,1
1.907,-7.49,-7.86,1
1.927,-7.49,-7.86,1
1.947,-7.61,-7.86,1
1.967,-7.61,-7.86,1
1.987,-7.61,-7.98,1
2.007,-7.61,-7.86,1
2.027,-7.61,-7.86,1
2.047,-7.61,-7.86,1
2.067,-7.61,-7.98,1
2.087,-7.61,-7.86,1
2.088,-7.61,-7.86,1
2.108,-7.61,-7.86,1
2.128,-7.49,-7.86,1
2.148,-7.61,-7.86,1
2.168,-7.49,-7.86,1
2.188,-7.61,-7.86,1
2.208,-7.61,-7.86,1
2.228,-7.49,-7.86,1
2.248,-7.49,-7.86,1
2.268,-7.61,-7.86,1
2.288,-7.61,-7.86,1
2.308,-7.61,-7.86,1
2.328,-7.61,-7.98,1
2.348,-7.61,-7.86,1
2.368,-7.61,-7.98,1
2.388,-7.61,-7.86,1
2.408,-7.49,-7.86,1
2.428,-7.61,-7.86,1
2.448,-7.61,-7.86,1
2.468,-7.61,-7.86,1
2.488,-7.61,-7.98,1
2.508,-7.61,-7.86,1
2.528,-7.61,-7.86,1
2.548,-7.61,-7.86,1
2.569,-7.61,-7.86,1
2.588,-7.61,-7.86,1
2.608,-7.61,-7.86,1
2.628,-7.61,-7.86,1
2.648,-7.49,-7.86,1
2.668,-7.49,-7.86,1
2.688,-7.61,-7.86,1
2.708,-7.49,-7.86,1
2.728,-7.49,-7.86,1
2.748,-7.61,-7.86,1
2.768,-7.61,-7.86,1
2.788,-7.61,-7.98,1
2.808,-7.61,-7.86,1
2.828,-7.49,-7.98,1
2.848,-7.61,-7.86,1
2.868,-7.61,-7.86,1
2.889,-7.49,-7.86,1
2.909,-7.61,-7.86,1
2.929,-7.61,-7.86,1
2.949,-7.61,-7.86,1
2.969,-7.61,-7.86,1
2.989,-7.49,-7.86,1
3.009,-7.61,-7.98,1
3.029,-7.61,-7.86,1
3.049,-7.61,-7.86,1
3.069,-7.61,-7.86,1
3.089,-7.61,-7.86,1
3.109,-7.61,-7.86,1
3.129,-7.49,-7.86,1
3.149,-7.61,-7.86,1
3.169,-7.61,-7.86,1
3.189,-7.49,-7.86,1
3.209,-7.49,-7.86,1
3.229,-7.61,-7.86,1
3.249,-7.61,-7.86,1
3.269,-7.49,-7.86,1
3.289,-7.49,-7.86,1
3.309,-7.25,-7.98,1
3.329,-6.88,-7.98,1
3.349,-6.76,-7.86,1
3.369,-6.88,-7.86,1
3.389,-7.0,-7.98,1
3.409,-7.12,-7.86,1
3.429,-7.25,-7.86,1
3.449,-7.37,-7.86,1
3.469,-7.37,-7.86,1
3.489,-7.37,-7.86,1
3.509,-7.37,-7.86,1
3.529,-7.49,-7.86,1
3.549,-7.49,-7.86,1
3.569,-7.49,-7.86,1
3.589,-7.49,-7.86,1
3.609,-7.49,-7.86,1
3.629,-7.49,-7.86,1
3.649,-7.49,-7.98,1
3.669,-7.49,-7.86,1
3.69,-7.49,-7.98,1
3.71,-7.49,-8.35,1
3.73,-7.49,-8.71,1
3.75,-7.49,-8.83,1
3.77,-7.49,-8.71,1
3.79,-7.49,-8.47,1
3.81,-7.49,-8.35,1
3.83,-7.49,-8.22,1
3.85,-7.49,-8.1,1
3.87,-7.49,-8.1,1
3.89,-7.49,-7.98,1
3.91,-7.49,-7.98,1
3.93,-7.49,-7.98,1
3.95,-7.49,-7.98,1
3.97,-7.49,-7.98,1
3.99,-7.49,-7.98,1
4.01,-7.49,-7.98,1
4.03,-7.49,-7.86,1
4.05,-7.49,-7.98,1
4.07,-7.49,-7.98,1
4.09,-7.49,-7.86,1
4.09,-7.49,-7.98,1
4.11,-7.49,-7.98,1
4.13,-7.49,-7.86,1
4.15,-7.49,-7.98,1
4.17,-7.49,-7.86,1
4.19,-7.49,-7.86,1
4.21,-7.49,-7.98,1
4.23,-7.61,-7.98,1
4.25,-7.49,-7.86,1
4.27,-7.49,-7.98,1
4.29,-7.49,-7.86,1
4.31,-7.61,-7.98,1
4.33,-7.49,-7.98,1
4.35,-7.49,-7.98,1
4.37,-7.49,-7.86,1
4.39,-7.49,-7.98,1
4.41,-7.49,-7.98,1
4.43,-7.49,-7.98,1
4.45,-7.49,-7.86,1
4.47,-7.49,-7.86,1
4.49,-7.49,-7.98,1
4.491,-7.49,-7.86,1
4.511,-7.49,-7.86,1
4.531,-7.49,-7.86,1
4.551,-7.0,-7.86,1
4.571,-6.39,-7.49,1
4.591,-5.9,-6.88,1
4.611,-5.54,-6.51,1
4.631,-5.17,-6.27,1
4.651,-4.92,-6.02,1
4.671,-4.92,-5.78,1
4.691,-4.8,-5.54,1
4.711,-4.56,-5.54,1
4.731,-4.44,-5.29,1
4.751,-4.44,-5.29,1
4.771,-4.44,-5.17,1
4.791,-4.31,-5.05,1
4.811,-4.31,-5.05,1
4.831,-4.44,-5.05,1
4.851,-4.44,-5.05,1
4.871,-4.31,-5.05,0
4.891,-4.07,-5.05,0
4.911,-4.07,-5.05,0
4.931,-4.07,-5.05,0
4.951,-4.07,-4.92,0
4.971,-4.07,-4.92,0
4.991,-4.19,-4.92,0
5.011,-4.31,-4.8,0
5.031,-4.19,-4.8,0
5.051,-4.07,-4.8,0
5.071,-4.07,-4.8,0
5.091,-4.07,-4.8,0
5.111,-4.07,-4.92,0
5.131,-4.07,-4.92,0
5.151,-4.19,-4.8,0
5.171,-4.07,-4.92,0
5.191,-4.07,-4.8,0
5.211,-4.07,-4.8,0
5.231,-4.07,-4.8,0
5.251,-4.07,-4.8,0
5.271,-4.07,-4.8,0
5.292,-4.07,-4.8,0
5.312,-4.07,-4.8,0
5.332,-4.07,-4.8,0
5.352,-4.19,-4.8,0
5.372,-4.07,-4.8,0
5.392,-4.07,-4.92,0
5.412,-4.07,-4.8,0
5.432,-3.95,-4.8,0
5.452,-3.95,-4.68,0
5.472,-3.95,-4.68,0
5.492,-3.82,-4.68,0
5.512,-3.82,-4.68,0
5.532,-3.82,-4.68,0
5.552,-3.82,-4.68,0
5.572,-3.82,-4.68,0
5.592,-3.82,-4.68,0
5.612,-4.07,-4.8,0
5.632,-5.17,-5.9,0
5.652,-6.15,-6.63,0
5.672,-6.63,-7.25,0
5.692,-7.0,-8.47,0
5.692,-7.61,-9.08,0
5.712,-8.71,-9.45,0
5.732,-9.2,-9.57,0
5.752,-9.45,-9.81,0
5.772,-9.57,-9.81,0
5.792,-9.69,-9.93,0
5.812,-9.81,-9.93,0
5.832,-9.81,-9.93,0
5.852,-9.81,-9.93,0
5.872,-9.93,-9.93,0
5.892,-9.93,-10.06,0
5.912,-9.93,-10.06,0
5.932,-9.93,-10.06,0
5.952,-10.06,-10.06,0
5.972,-9.93,-10.18,0
5.992,-10.06,-10.06,0
6.012,-10.06,-10.06,0
6.032,-10.06,-10.18,0
6.052,-10.06,-10.18,0
6.072,-10.06,-10.06,0
6.093,-10.06,-10.06,0
6.113,-10.06,-10.06,0
6.133,-10.06,-10.18,0
6.153,-10.06,-10.18,0
6.173,-10.06,-10.18,0
6.193,-10.06,-10.18,0
6.213,-10.06,-10.18,0
6.233,-10.06,-10.18,0
6.253,-10.18,-10.18,0
6.273,-10.06,-10.18,0
6.293,-10.18,-10.18,0
6.313,-10.18,-10.18,0
6.333,-10.18,-10.18,0
6.353,-10.18,-10.18,1
6.373,-10.18,-10.18,1
6.393,-10.18,-10.18,1
6.413,-10.18,-10.18,1
6.433,-10.18,-10.18,1
6.453,-10.18,-10.18,1
6.473,-10.18,-10.18,1
6.493,-10.18,-10.18,1
6.513,-10.18,-10.18,1
6.533,-10.18,-10.3,1
6.553,-10.18,-10.3,1
6.573,-10.18,-10.3,1
6.593,-10.18,-10.3,1
6.613,-10.18,-10.3,1
6.633,-9.81,-9.81,1
6.653,-9.2,-9.32,1
6.673,-8.59,-8.71,1
6.693,-8.22,-7.73,1
6.713,-7.61,-7.12,1
6.733,-6.76,-6.76,1
6.753,-6.02,-6.27,1
6.773,-5.78,-6.15,1
6.793,-5.54,-5.9,1
6.813,-5.29,-5.78,1
6.833,-5.05,-5.54,1
6.853,-4.8,-5.41,1
6.873,-4.68,-5.41,1
6.893,-4.68,-5.29,1
6.894,-4.56,-5.17,1
6.914,-4.44,-5.17,1
6.934,-4.56,-5.17,1
6.954,-4.56,-5.17,0
6.974,-4.44,-5.17,0
6.994,-4.31,-5.17,0
7.014,-4.19,-5.05,0
7.034,-4.19,-5.05,0
7.054,-4.19,-4.92,0
7.074,-4.19,-4.92,0
7.094,-4.31,-4.8,0
7.114,-4.44,-4.92,0
7.134,-4.31,-4.8,0
7.154,-4.19,-4.92,0
7.174,-4.07,-4.8,0
7.194,-4.07,-4.8,0
7.214,-4.07,-4.92,0
7.234,-4.07,-4.92,0
7.254,-4.19,-4.92,0
7.274,-4.19,-4.92,0
7.294,-4.31,-4.8,0
7.294,-4.07,-4.8,0
7.314,-4.07,-4.8,0
7.334,-4.07,-4.8,0
7.354,-4.07,-4.8,0
7.374,-4.07,-4.8,0
7.394,-4.19,-4.8,0
7.414,-4.31,-4.8,0
7.434,-4.19,-4.8,0
7.454,-4.07,-4.92,0
7.474,-4.07,-4.92,0
7.494,-3.95,-4.8,0
7.514,-3.95,-4.8,0
7.534,-3.95,-4.68,0
7.554,-3.95,-4.68,0
7.574,-3.95,-4.68,0
7.594,-3.82,-4.68,0
7.614,-3.82,-4.68,0
7.634,-3.82,-4.68,0
7.654,-3.95,-4.68,0
7.674,-4.19,-4.8,0
7.695,-5.29,-5.9,0
7.715,-6.15,-6.63,0
7.735,-6.63,-7.25,0
7.755,-7.0,-8.47,0
7.775,-7.61,-9.08,0
7.795,-8.71,-9.45,0
7.815,-9.2,-9.69,0
7.835,-9.45,-9.81,0
7.855,-9.57,-9.81,0
7.875,-9.69,-9.93,0
7.895,-9.69,-9.93,0
7.915,-9.81,-9.93,0
7.935,-9.81,-9.93,0
7.955,-9.93,-9.93,0
7.975,-9.93,-10.06,0
7.995,-9.93,-10.06,0
8.015,-9.93,-10.06,0
8.035,-10.06,-10.06,0
8.055,-10.06,-10.18,0
8.075,-10.06,-10.06,0
8.095,-10.06,-10.18,0
8.115,-10.06,-10.18,0
8.135,-10.06,-10.06,0
8.155,-10.06,-10.06,0
8.175,-10.06,-10.18,0
8.195,-10.06,-10.18,0
8.215,-10.06,-10.18,0
8.235,-10.06,-10.18,0
8.255,-10.06,-10.18,0
8.275,-10.06,-10.18,0
8.295,-10.06,-10.18,0
8.315,-10.06,-10.18,0
8.335,-10.06,-10.18,0
8.355,-10.18,-10.18,0
8.375,-10.18,-10.18,0
8.395,-10.06,-10.18,0
8.415,-10.18,-10.18,0
8.435,-10.18,-10.18,1
8.455,-10.18,-10.18,1
8.475,-10.18,-10.18,1
8.496,-10.18,-10.18,1
8.516,-10.18,-10.18,1
8.536,-10.18,-10.18,1
8.556,-10.18,-10.18,1
8.576,-10.06,-10.18,1
8.596,-10.06,-10.18,1
8.616,-10.18,-10.18,1
8.636,-10.18,-10.3,1
8.656,-10.18,-10.3,1
8.676,-10.18,-10.18,1
8.696,-10.18,-10.3,1
8.716,-9.69,-9.81,1
8.736,-9.08,-9.2,1
8.756,-8.59,-8.59,1
8.776,-8.22,-7.61,1
8.796,-7.49,-7.12,1
8.816,-6.63,-6.63,1
8.836,-6.02,-6.39,1
8.856,-5.66,-6.02,1
8.876,-5.41,-5.9,1
8.896,-5.29,-5.78,1
8.896,-5.05,-5.54,1
8.916,-4.92,-5.41,1
8.936,-4.68,-5.41,1
8.956,-4.68,-5.29,1
8.976,-4.56,-5.17,1
8.996,-4.44,-5.17,1
9.016,-4.44,-5.17,1
9.036,-4.56,-5.17,0
9.056,-4.56,-5.17,0
9.076,-4.31,-5.17,0
9.096,-4.19,-5.05,0
9.116,-4.19,-5.05,0
9.136,-4.19,-5.05,0
9.156,-4.19,-4.92,0
9.176,-4.31,-4.92,0
9.196,-4.44,-4.92,0
9.216,-4.44,-4.92,0
9.236,-4.31,-4.92,0
9.256,-4.19,-4.92,0
9.276,-4.07,-4.92,0
9.296,-4.07,-4.92,0
9.297,-4.07,-4.92,0
9.317,-4.07,-4.92,0
9.337,-4.19,-4.92,0
9.357,-4.19,-4.8,0
9.377,-4.07,-4.8,0
9.397,-4.07,-4.8,0
9.417,-4.07,-4.8,0
9.437,-4.07,-4.8,0
9.457,-4.07,-4.8,0
9.477,-4.07,-4.8,0
9.497,-4.19,-4.8,0
9.517,-4.31,-4.8,0
9.537,-4.19,-4.92,0
9.557,-4.07,-4.92,0
9.577,-4.07,-4.8,0
9.597,-4.07,-4.8,0
9.617,-4.07,-4.68,0
9.637,-4.07,-4.68,0
9.657,-3.95,-4.68,0
9.677,-3.95,-4.68,0
9.697,-3.95,-4.68,0
9.717,-4.07,-4.68,0
9.737,-4.07,-4.68,0
9.757,-5.05,-5.54,0
9.777,-6.02,-6.51,0
9.797,-6.76,-7.12,0
9.817,-7.0,-8.22,0
9.837,-7.61,-9.08,0
9.857,-8.71,-9.32,0
9.877,-9.32,-9.57,0
9.897,-9.57,-9.69,0
9.917,-9.69,-9.81,0
9.937,-9.69,-9.81,0
9.957,-9.81,-9.81,0
9.977,-9.81,-9.93,0
9.997,-9.81,-9.93,0
10.017,-9.69,-9.93,0
10.037,-9.81,-9.93,0
10.057,-9.93,-10.06,0
10.077,-9.93,-10.06,0
10.097,-10.06,-10.06,0
10.098,-9.93,-10.06,0
10.118,-9.93,-10.06,0
10.138,-9.93,-10.06,0
10.158,-9.93,-10.06,0
10.178,-10.06,-10.06,0
10.198,-10.06,-10.06,0
10.218,-10.06,-10.06,0
10.238,-10.06,-10.06,0
10.258,-10.06,-10.18,0
10.278,-10.06,-10.18,0
10.298,-10.06,-10.18,0
10.318,-10.06,-10.18,0
10.338,-10.06,-10.18,0
10.358,-10.06,-10.18,0
10.378,-10.06,-10.18,0
10.398,-10.18,-10.18,0
10.418,-10.06,-10.18,0
10.438,-10.18,-10.18,0
10.458,-10.18,-10.18,1
10.478,-10.18,-10.18,1
10.499,-10.18,-10.18,1
10.519,-10.18,-10.18,1
10.539,-10.18,-10.18,1
10.559,-10.18,-10.18,1
10.579,-10.06,-10.18,1
10.599,-10.18,-10.18,1
10.619,-10.18,-10.18,1
10.639,-10.18,-10.18,1
10.659,-10.18,-10.18,1
10.679,-10.18,-10.3,1
10.699,-10.18,-10.3,1
10.719,-9.81,-9.93,1
10.739,-9.2,-9.32,1
10.759,-8.59,-8.71,1
10.779,-8.22,-7.73,1
10.799,-7.61,-7.12,1
10.819,-6.63,-6.63,1
10.839,-6.02,-6.27,1
10.859,-5.54,-6.02,1
10.879,-5.29,-5.78,1
10.899,-5.17,-5.66,1
10.919,-5.05,-5.54,1
10.939,-4.92,-5.41,1
10.959,-4.68,-5.29,1
10.979,-4.56,-5.29,1
10.999,-4.44,-5.17,1
11.019,-4.44,-5.17,1
11.039,-4.44,-5.17,0
11.059,-4.56,-5.17,0
11.079,-4.56,-5.17,0
11.099,-4.31,-5.05,0
11.119,-4.19,-5.05,0
11.139,-4.19,-5.05,0
11.159,-4.19,-4.92,0
11.179,-4.19,-4.92,0
11.199,-4.31,-4.92,0
11.219,-4.44,-4.92,0
11.239,-4.44,-4.92,0
11.259,-4.19,-4.92,0
11.279,-4.07,-4.92,0
11.3,-4.07,-4.92,0
11.32,-4.07,-4.92,0
11.34,-4.07,-4.92,0
11.36,-4.07,-4.92,0
11.38,-4.31,-4.8,0
11.4,-4.07,-4.8,0
11.42,-4.07,-4.8,0
11.44,-4.07,-4.8,0
11.46,-3.95,-4.8,0
11.48,-4.07,-4.8,0
11.5,-4.07,-4.8,0
11.52,-4.19,-4.8,0
11.54,-4.31,-4.8,0
11.56,-4.07,-4.8,0
11.58,-3.95,-4.8,0
11.6,-3.95,-4.68,0
11.62,-3.82,-4.68,0
11.64,-3.82,-4.68,0
11.66,-3.82,-4.68,0
11.68,-3.82,-4.56,0
11.7,-3.82,-4.56,0
11.7,-3.82,-4.56,0
11.72,-3.95,-4.56,0
11.74,-4.44,-5.17,0
11.76,-5.66,-6.27,0
11.78,-6.51,-6.88,0
11.8,-7.0,-7.86,0
11.82,-7.37,-8.83,0
11.84,-8.35,-9.32,0
11.86,-9.08,-9.57,0
11.88,-9.45,-9.81,0
11.9,-9.69,-9.81,0
11.92,-9.81,-9.81,0
11.94,-9.81,-9.93,0
11.96,-9.81,-9.93,0
11.98,-9.81,-9.93,0
12.0,-9.81,-10.06,0
12.02,-9.93,-10.06,0
12.04,-10.06,-10.06,0
12.06,-10.06,-10.06,0
12.08,-10.06,-10.06,0
12.1,-10.06,-10.18,0
12.101,-10.06,-10.06,0
12.121,-10.06,-10.06,0
12.141,-10.06,-10.18,0
12.161,-10.06,-10.18,0
12.181,-10.06,-10.06,0
12.201,-10.06,-10.06,0
12.221,-10.06,-10.18,0
12.241,-10.06,-10.18,0
12.261,-10.06,-10.18,0
12.281,-10.06,-10.18,0
12.301,-10.06,-10.18,0
12.321,-10.06,-10.18,0
12.341,-10.06,-10.18,0
12.361,-10.06,-10.18,0
12.381,-10.06,-10.18,0
12.401,-10.06,-10.18,0
12.421,-10.06,-10.18,0
12.441,-10.18,-10.18,1
12.461,-10.18,-10.18,1
12.481,-10.18,-10.18,1
12.501,-10.18,-10.18,1
12.502,-10.18,-10.18,1
12.522,-10.18,-10.18,1
12.542,-10.18,-10.18,1
12.562,-10.18,-10.18,1
12.582,-10.18,-10.18,1
12.602,-10.18,-10.18,1
12.622,-10.18,-10.18,1
12.642,-10.18,-10.18,1
12.662,-10.18,-10.3,1
12.682,-9.81,-9.81,1
12.702,-9.2,-9.32,1
12.722,-8.59,-8.71,1
12.742,-8.22,-7.73,1
12.762,-7.61,-7.12,1
12.782,-6.76,-6.63,1
12.802,-6.02,-6.27,1
12.822,-5.54,-6.02,1
12.842,-5.29,-5.9,1
12.862,-5.17,-5.66,1
12.882,-5.17,-5.54,1
12.902,-4.8,-5.41,1
12.902,-4.68,-5.29,1
12.922,-4.56,-5.29,1
12.942,-4.44,-5.17,1
12.962,-4.31,-5.17,1
12.982,-4.31,-5.17,0
13.002,-4.44,-5.17,0
13.022,-4.44,-5.17,0
13.042,-4.19,-5.05,0
13.062,-4.19,-5.05,0
13.082,-4.19,-4.92,0
13.102,-4.07,-4.92,0
13.122,-4.07,-4.92,0
13.142,-4.07,-4.92,0
13.162,-4.19,-4.92,0
13.182,-4.31,-4.92,0
13.202,-4.07,-4.92,0
13.222,-4.19,-4.92,0
13.242,-4.07,-4.92,0
13.262,-3.95,-4.8,0
13.282,-3.95,-4.8,0
13.302,-4.07,-4.8,0
13.303,-4.19,-4.8,0
13.323,-4.19,-4.8,0
13.343,-4.07,-4.68,0
13.363,-4.19,-4.68,0
13.383,-3.95,-4.68,0
13.403,-4.07,-4.68,0
13.423,-4.07,-4.68,0
13.443,-4.07,-4.8,0
13.463,-4.31,-4.92,0
13.483,-4.19,-4.8,0
13.503,-4.07,-4.68,0
13.523,-3.95,-4.68,0
13.543,-3.95,-4.68,0
13.563,-3.82,-4.56,0
13.583,-3.82,-4.56,0
13.603,-3.82,-4.68,0
13.623,-3.95,-4.68,0
13.643,-3.95,-4.68,0
13.663,-3.95,-4.68,0
13.683,-4.56,-5.29,0
13.703,-5.78,-6.27,0
13.723,-6.51,-7.0,0
13.743,-6.88,-7.98,0
13.763,-7.25,-8.96,0
13.783,-8.22,-9.45,0
13.803,-9.08,-9.57,0
13.823,-9.32,-9.81,0
13.843,-9.57,-9.81,0
13.863,-9.57,-9.93,0
13.883,-9.69,-9.93,0
13.903,-9.69,-9.93,0
13.923,-9.81,-9.93,0
13.943,-9.81,-10.06,0
13.963,-9.93,-10.06,0
13.983,-9.93,-10.06,0
14.003,-9.93,-10.06,0
14.023,-9.93,-10.06,0
14.043,-10.06,-10.06,0
14.063,-10.06,-10.06,0
14.083,-10.06,-10.18,0
14.104,-10.06,-10.06,0
14.124,-10.18,-10.18,0
14.144,-10.18,-10.06,0
14.164,-10.06,-10.06,0
14.184,-10.18,-10.18,0
14.204,-10.18,-10.18,0
14.224,-10.18,-10.18,0
14.244,-10.18,-10.18,0
14.264,-10.18,-10.18,0
14.284,-10.06,-10.18,0
14.304,-10.06,-10.18,0
14.324,-10.06,-10.18,0
14.344,-10.18,-10.18,0
14.364,-10.18,-10.18,0
14.384,-10.18,-10.06,0
14.404,-10.18,-10.18,1
14.424,-10.18,-10.18,1
14.444,-10.06,-10.18,1
14.464,-10.06,-10.18,1
14.484,-10.18,-10.18,1
14.504,-10.18,-10.18,1
14.524,-10.18,-10.18,1
14.544,-10.18,-10.18,1
14.564,-10.18,-10.18,1
14.584,-10.18,-10.18,1
14.604,-10.18,-10.3,1
14.624,-10.18,-10.3,1
14.644,-10.18,-10.3,1
14.664,-9.93,-9.93,1
14.684,-9.2,-9.32,1
14.704,-8.71,-8.71,1
14.724,-8.22,-7.86,1
14.744,-7.73,-7.12,1
14.764,-6.88,-6.63,1
14.784,-6.15,-6.39,1
14.804,-5.66,-6.15,1
14.824,-5.29,-5.9,1
14.844,-5.17,-5.66,1
14.864,-5.05,-5.54,1
14.884,-4.92,-5.41,1
14.904,-4.8,-5.29,1
14.905,-4.68,-5.17,1
14.925,-4.56,-5.17,1
14.945,-4.31,-5.17,1
14.965,-4.31,-5.17,0
14.985,-4.31,-5.05,0
15.005,-4.44,-5.17,0
15.025,-4.31,-5.05,0
15.045,-4.19,-5.05,0
15.065,-4.19,-4.92,0
15.085,-4.07,-4.92,0
15.105,-4.07,-4.92,0
15.125,-4.07,-4.8,0
15.145,-4.19,-4.8,0
15.165,-4.31,-4.8,0
15.185,-4.19,-4.8,0
15.205,-4.07,-4.8,0
15.225,-4.07,-4.8,0
15.245,-3.95,-4.8,0
15.265,-3.82,-4.8,0
15.286,-3.95,-4.8,0
15.305,-3.95,-4.8,0
15.306,-4.07,-4.8,0
15.326,-3.95,-4.68,0
15.346,-3.95,-4.68,0
15.366,-3.95,-4.68,0
15.386,-3.82,-4.8,0
15.406,-3.82,-4.8,0
15.426,-3.95,-4.8,0
15.446,-4.07,-4.92,0
15.466,-4.19,-4.92,0
15.486,-3.95,-4.8,0
15.506,-3.95,-4.8,0
15.526,-3.82,-4.68,0
15.546,-3.82,-4.68,0
15.566,-3.82,-4.68,0
15.586,-3.82,-4.68,0
15.606,-3.82,-4.68,0
15.626,-3.95,-4.68,0
15.646,-4.07,-4.68,0
15.666,-4.56,-5.29,0
15.686,-5.78,-6.27,0
15.706,-6.51,-6.88,0
15.726,-7.0,-7.86,0
15.746,-7.37,-8.83,0
15.766,-8.35,-9.32,0
15.786,-9.08,-9.57,0
15.806,-9.45,-9.69,0
15.826,-9.69,-9.81,0
15.846,-9.69,-9.93,0
15.866,-9.81,-9.93,0
15.886,-9.81,-9.93,0
15.906,-9.81,-10.06,0
15.926,-9.81,-9.93,0
15.946,-9.93,-10.06,0
15.966,-9.93,-10.06,0
15.986,-10.06,-10.06,0
16.006,-10.06,-10.06,0
16.026,-10.06,-10.06,0
16.046,-10.06,-10.06,0
16.066,-10.06,-10.06,0
16.086,-10.06,-10.06,0
16.106,-10.18,-10.06,0
16.126,-10.06,-10.06,0
16.146,-10.06,-10.06,0
16.166,-10.06,-10.06,0
16.186,-10.06,-10.18,0
16.206,-10.06,-10.18,0
16.226,-10.06,-10.18,0
16.246,-10.18,-10.18,0
16.266,-10.06,-10.18,0
16.286,-10.06,-10.18,0
16.306,-10.18,-10.18,0
16.326,-10.18,-10.18,0
16.346,-10.06,-10.18,0
16.366,-10.18,-10.18,0
16.386,-10.18,-10.18,1
16.406,-10.18,-10.18,1
16.426,-10.18,-10.18,1
16.446,-10.18,-10.18,1
16.466,-10.18,-10.18,1
16.486,-10.18,-10.18,1
16.506,-10.18,-10.18,1
16.507,-10.18,-10.18,1
16.527,-10.18,-10.18,1
16.547,-10.18,-10.3,1
16.567,-10.18,-10.3,1
16.587,-10.18,-10.3,1
16.607,-10.18,-10.3,1
16.627,-9.93,-9.93,1
16.647,-9.2,-9.32,1
16.667,-8.59,-8.71,1
16.687,-8.22,-7.86,1
16.707,-7.61,-7.12,1
16.727,-6.88,-6.63,1
16.747,-6.15,-6.39,1
16.767,-5.54,-6.15,1
16.787,-5.29,-5.9,1
16.807,-5.17,-5.66,1
16.827,-5.05,-5.54,1
16.847,-4.92,-5.41,1
16.867,-4.68,-5.29,1
16.887,-4.56,-5.29,1
16.907,-4.44,-5.17,1
16.908,-4.31,-5.17,1
16.928,-4.31,-5.05,0
16.948,-4.31,-5.05,0
16.968,-4.31,-5.05,0
16.988,-4.31,-5.05,0
17.008,-4.19,-5.05,0
17.028,-4.19,-4.92,0
17.048,-4.19,-4.92,0
17.068,-4.19,-4.92,0
17.088,-4.19,-4.92,0
17.108,-4.31,-4.92,0
17.128,-4.44,-4.92,0
17.148,-4.31,-4.92,0
17.168,-4.31,-4.8,0
17.188,-4.19,-4.92,0
17.208,-4.07,-4.92,0
17.228,-4.07,-4.92,0
17.248,-4.07,-4.92,0
17.268,-4.07,-4.8,0
17.288,-4.19,-4.8,0
17.308,-3.95,-4.68,0
17.308,-4.07,-4.68,0
17.328,-3.95,-4.68,0
17.348,-3.95,-4.68,0
17.368,-3.95,-4.8,0
17.388,-3.95,-4.8,0
17.408,-4.07,-4.8,0
17.428,-4.07,-4.8,0
17.448,-3.95,-4.8,0
17.468,-3.82,-4.68,0
17.488,-3.82,-4.56,0
17.508,-3.7,-4.56,0
17.528,-3.58,-4.56,0
17.548,-3.58,-4.56,0
17.568,-3.58,-4.56,0
17.588,-3.7,-4.56,0
17.608,-3.7,-4.56,0
17.628,-4.31,-5.17,0
17.648,-5.54,-6.15,0
17.668,-6.27,-6.76,0
17.688,-6.76,-7.73,0
17.708,-7.25,-8.71,0
17.709,-8.22,-9.2,0
17.729,-9.08,-9.57,0
17.749,-9.45,-9.69,0
17.769,-9.69,-9.81,0
17.789,-9.81,-9.93,0
17.809,-9.81,-9.93,0
17.829,-9.93,-9.93,0
17.849,-9.93,-9.93,0
17.869,-9.93,-10.06,0
17.889,-10.06,-10.06,0
17.909,-10.06,-10.18,0
17.929,-10.18,-10.18,0
17.949,-10.18,-10.18,0
17.969,-10.18,-10.18,0
17.989,-10.18,-10.18,0
18.009,-10.18,-10.18,0
18.029,-10.18,-10.18,0
18.049,-10.18,-10.18,0
18.069,-10.18,-10.18,0
18.089,-10.18,-10.18,0
18.109,-10.18,-10.18,0
18.109,-10.18,-10.3,0
18.129,-10.18,-10.3,0
18.149,-10.18,-10.3,0
18.169,-10.18,-10.3,0
18.189,-10.18,-10.3,0
18.209,-10.18,-10.3,0
18.229,-10.18,-10.3,0
18.249,-10.18,-10.3,0
18.269,-10.18,-10.3,0
18.289,-10.18,-10.3,0
18.309,-10.18,-10.3,1
18.329,-10.18,-10.3,1
18.349,-10.18,-10.3,1
18.369,-10.18,-10.3,1
18.389,-10.18,-10.3,1
18.409,-10.18,-10.3,1
18.429,-10.3,-10.3,1
18.449,-10.3,-10.3,1
18.469,-10.3,-10.3,1
18.489,-10.3,-10.3,1
18.509,-10.3,-10.3,1
18.51,-10.3,-10.3,1
18.53,-10.3,-10.3,1
18.55,-9.93,-9.93,1
18.57,-9.2,-9.45,1
18.59,-8.71,-8.71,1
18.61,-8.35,-7.73,1
18.63,-7.61,-7.12,1
18.65,-6.76,-6.63,1
18.67,-6.15,-6.27,1
18.69,-5.54,-6.15,1
18.71,-5.29,-5.78,1
18.73,-5.05,-5.66,1
18.75,-5.05,-5.41,1
18.77,-4.92,-5.29,1
18.79,-4.56,-5.29,1
18.81,-4.56,-5.17,1
18.83,-4.44,-5.17,1
18.85,-4.31,-5.05,1
18.87,-4.19,-5.05,0
18.89,-4.19,-5.05,0
18.91,-4.19,-5.05,0
18.93,-4.19,-5.05,0
18.95,-4.07,-4.92,0
18.97,-4.07,-4.92,0
18.99,-3.95,-4.8,0
19.01,-3.95,-4.8,0
19.03,-3.82,-4.8,0
19.05,-4.07,-4.8,0
19.07,-4.07,-4.68,0
19.09,-3.82,-4.8,0
19.11,-3.82,-4.68,0
19.13,-3.95,-4.8,0
19.15,-3.82,-4.8,0
19.17,-3.7,-4.68,0
19.19,-3.82,-4.68,0
19.21,-3.82,-4.56,0
19.23,-3.82,-4.68,0
19.25,-3.82,-4.56,0
19.27,-3.82,-4.56,0
19.29,-3.82,-4.56,0
19.31,-3.82,-4.56,0
19.311,-3.82,-4.56,0
19.331,-3.82,-4.56,0
19.351,-3.95,-4.56,0
19.371,-3.95,-4.56,0
19.391,-3.82,-4.44,0
19.411,-3.82,-4.44,0
19.431,-3.7,-4.44,0
19.451,-3.58,-4.44,0
19.471,-3.58,-4.31,0
19.491,-3.58,-4.31,0
19.511,-3.58,-4.31,0
19.531,-3.7,-4.44,0
19.551,-3.7,-4.44,0
19.571,-4.44,-5.05,0
19.591,-5.54,-6.15,0
19.611,-6.39,-6.88,0
19.631,-6.76,-7.98,0
19.651,-7.37,-8.96,0
19.671,-8.35,-9.45,0
19.691,-9.08,-9.69,0
19.711,-9.45,-9.81,0
19.711,-9.57,-9.93,0
19.731,-9.69,-10.06,0
19.751,-9.81,-10.06,0
19.771,-9.93,-10.06,0
19.791,-9.93,-10.18,0
19.811,-9.93,-10.18,0
19.831,-10.06,-10.18,0
19.851,-10.06,-10.18,0
19.871,-10.18,-10.18,0
19.891,-10.18,-10.18,0
19.911,-10.18,-10.18,0
19.931,-10.18,-10.18,0
19.951,-10.18,-10.3,0
19.971,-10.3,-10.18,0
19.991,-10.3,-10.18,0
20.011,-10.3,-10.3,0
20.031,-10.3,-10.3,0
20.051,-10.3,-10.3,0
20.071,-10.3,-10.3,0
20.091,-10.18,-10.3,0
20.111,-10.3,-10.3,0
20.112,-10.3,-10.3,0
20.132,-10.3,-10.3,0
20.152,-10.3,-10.3,0
20.172,-10.3,-10.3,0
20.192,-10.3,-10.3,0
20.212,-10.3,-10.3,0
20.232,-10.3,-10.3,1
20.252,-10.3,-10.3,1
20.272,-10.3,-10.3,1
20.292,-10.3,-10.3,1
20.312,-10.3,-10.3,1
20.332,-10.18,-10.42,1
20.352,-10.3,-10.3,1
20.372,-10.3,-10.3,1
20.392,-10.42,-10.42,1
20.412,-10.3,-10.42,1
20.432,-10.3,-10.42,1
20.452,-10.3,-10.42,1
20.472,-10.3,-10.42,1
20.492,-10.3,-10.42,1
20.512,-9.81,-9.81,1
20.513,-9.2,-9.32,1
20.533,-8.71,-8.59,1
20.553,-8.22,-7.61,1
20.573,-7.37,-7.0,1
20.593,-6.51,-6.63,1
20.613,-5.9,-6.27,1
20.633,-5.41,-6.02,1
20.653,-5.17,-5.78,1
20.673,-5.05,-5.54,1
20.693,-4.92,-5.41,1
20.713,-4.68,-5.29,1
20.733,-4.56,-5.17,1
20.753,-4.56,-5.05,1
20.773,-4.31,-5.05,1
20.793,-4.19,-5.05,1
20.813,-4.07,-4.92,0
20.833,-4.19,-4.92,0
20.853,-4.07,-5.05,0
20.873,-3.95,-4.92,0
20.893,-3.95,-4.8,0
20.913,-3.95,-4.8,0
20.913,-3.95,-4.68,0
20.933,-3.82,-4.68,0
20.953,-3.95,-4.68,0
20.973,-4.07,-4.68,0
20.993,-3.95,-4.68,0
21.013,-3.82,-4.68,0
21.033,-3.82,-4.68,0
21.053,-3.82,-4.68,0
21.073,-3.7,-4.68,0
21.093,-3.7,-4.68,0
21.113,-3.7,-4.56,0
21.133,-3.7,-4.56,0
21.153,-3.82,-4.56,0
21.173,-3.7,-4.56,0
21.193,-3.7,-4.56,0
21.213,-3.7,-4.56,0
21.233,-3.58,-4.56,0
21.253,-3.58,-4.56,0
21.273,-3.7,-4.68,0
21.293,-3.7,-4.68,0
21.313,-3.7,-4.68,0
21.314,-3.7,-4.68,0
21.334,-3.7,-4.68,0
21.354,-3.58,-4.56,0
21.374,-3.58,-4.56,0
21.394,-3.58,-4.44,0
21.414,-3.58,-4.44,0
21.434,-3.58,-4.44,0
21.454,-3.7,-4.44,0
21.474,-3.82,-4.56,0
21.494,-4.8,-5.54,0
21.514,-5.9,-6.39,0
21.534,-6.63,-7.12,0
21.554,-7.0,-8.35,0
21.574,-7.73,-9.08,0
21.594,-8.71,-9.45,0
21.614,-9.32,-9.69,0
21.634,-9.57,-9.81,0
21.654,-9.69,-9.93,0
21.674,-9.81,-9.93,0
21.694,-9.93,-10.06,0
21.714,-10.06,-10.06,0
21.734,-10.06,-10.06,0
21.754,-10.06,-10.06,0
21.774,-10.06,-10.18,0
21.794,-10.06,-10.18,0
21.814,-10.18,-10.18,0
21.834,-10.18,-10.18,0
21.854,-10.18,-10.18,0
21.874,-10.18,-10.18,0
21.896,-10.18,-10.18,0
21.914,-10.18,-10.18,0
21.934,-10.18,-10.3,0
21.954,-10.06,-10.3,0
21.974,-10.18,-10.18,0
21.994,-10.18,-10.18,0
22.014,-10.18,-10.3,0
22.034,-10.18,-10.3,0
22.054,-10.18,-10.3,0
22.074,-10.18,-10.3,0
22.094,-10.18,-10.3,0
22.114,-10.18,-10.3,0
22.134,-10.3,-10.3,0
22.156,-10.3,-10.3,0
22.174,-10.3,-10.3,0
22.194,-10.3,-10.3,1
22.214,-10.3,-10.3,1
22.234,-10.3,-10.3,1
22.254,-10.3,-10.3,1
22.274,-10.3,-10.3,1
22.294,-10.3,-10.3,1
22.314,-10.3,-10.3,1
22.334,-10.3,-10.3,1
22.354,-10.3,-10.3,1
22.374,-10.3,-10.3,1
22.394,-10.3,-10.42,1
22.414,-10.42,-10.42,1
22.434,-10.3,-10.42,1
22.454,-10.18,-10.18,1
22.474,-9.57,-9.57,1
22.494,-8.96,-8.96,1
22.514,-8.47,-8.1,1
22.515,-7.98,-7.25,1
22.535,-7.0,-6.76,1
22.555,-6.27,-6.39,1
22.575,-5.66,-6.15,1
22.595,-5.41,-5.9,1
22.615,-5.05,-5.66,1
22.635,-4.92,-5.54,1
22.655,-4.92,-5.29,1
22.675,-4.68,-5.17,1
22.695,-4.44,-5.17,1
22.715,-4.44,-5.05,1
22.735,-4.19,-5.05,1
22.755,-4.07,-4.92,1
22.775,-4.07,-4.92,0
22.795,-4.07,-4.92,0
22.815,-4.19,-4.92,0
22.835,-4.07,-4.92,0
22.855,-3.95,-4.8,0
22.875,-3.95,-4.8,0
22.895,-3.82,-4.8,0
22.915,-3.95,-4.68,0
22.935,-3.82,-4.68,0
22.955,-4.07,-4.68,0
22.975,-4.07,-4.68,0
22.995,-3.95,-4.68,0
23.015,-3.95,-4.8,0
23.035,-3.82,-4.8,0
23.055,-3.82,-4.68,0
23.075,-3.82,-4.68,0
23.095,-3.82,-4.68,0
23.115,-3.82,-4.68,0
23.135,-3.82,-4.56,0
23.155,-3.82,-4.56,0
23.175,-3.82,-4.56,0
23.195,-3.7,-4.56,0
23.215,-3.7,-4.68,0
23.235,-3.7,-4.68,0
23.255,-3.7,-4.68,0
23.275,-3.7,-4.68,0
23.296,-3.82,-4.68,0
23.315,-3.7,-4.56,0
23.316,-3.7,-4.56,0
23.336,-3.58,-4.44,0
23.356,-3.46,-4.44,0
23.376,-3.46,-4.44,0
23.396,-3.46,-4.44,0
23.416,-3.58,-4.44,0
23.436,-3.7,-4.44,0
23.456,-3.95,-4.8,0
23.476,-5.17,-5.9,0
23.496,-6.15,-6.63,0
23.516,-6.63,-7.49,0
23.536,-7.12,-8.59,0
23.556,-8.1,-9.2,0
23.576,-8.96,-9.57,0
23.596,-9.45,-9.69,0
23.616,-9.69,-9.81,0
23.636,-9.81,-9.93,0
23.656,-9.93,-9.93,0
23.676,-10.06,-10.06,0
23.696,-10.06,-10.06,0
23.716,-10.06,-10.06,0
23.736,-10.18,-10.18,0
23.756,-10.18,-10.18,0
23.776,-10.18,-10.3,0
23.796,-10.18,-10.18,0
23.816,-10.18,-10.18,0
23.836,-10.18,-10.18,0
23.856,-10.3,-10.3,0
23.876,-10.3,-10.18,0
23.896,-10.3,-10.18,0
23.916,-10.18,-10.18,0
23.936,-10.18,-10.18,0
23.956,-10.3,-10.18,0
23.976,-10.18,-10.3,0
23.996,-10.3,-10.3,0
24.016,-10.3,-10.3,0
24.036,-10.3,-10.3,0
24.056,-10.18,-10.3,0
24.076,-10.18,-10.3,0
24.096,-10.3,-10.3,0
24.116,-10.18,-10.3,0
24.117,-10.3,-10.3,0
24.137,-10.3,-10.3,0
24.157,-10.3,-10.3,1
24.177,-10.3,-10.3,1
24.197,-10.3,-10.3,1
24.217,-10.3,-10.3,1
24.237,-10.3,-10.3,1
24.257,-10.3,-10.3,1
24.277,-10.3,-10.3,1
24.297,-10.3,-10.3,1
24.317,-10.3,-10.3,1
24.337,-10.3,-10.3,1
24.357,-10.42,-10.42,1
24.377,-10.42,-10.3,1
24.397,-10.42,-10.3,1
24.417,-10.06,-9.93,1
24.437,-9.32,-9.45,1
24.457,-8.83,-8.71,1
24.477,-8.35,-7.73,1
24.497,-7.61,-7.12,1
24.517,-6.76,-6.63,1
24.537,-6.15,-6.39,1
24.557,-5.54,-6.02,1
24.577,-5.29,-5.78,1
24.597,-5.05,-5.54,1
24.617,-4.92,-5.41,1
24.637,-4.8,-5.29,1
24.657,-4.56,-5.17,1
24.677,-4.56,-5.05,1
24.697,-4.44,-5.05,1
24.717,-4.19,-5.05,1
24.737,-4.19,-4.92,0
24.757,-4.07,-5.05,0
24.777,-4.07,-5.05,0
24.797,-4.07,-4.92,0
24.817,-3.95,-4.8,0
24.837,-3.95,-4.8,0
24.857,-3.95,-4.8,0
24.877,-3.82,-4.8,0
24.897,-3.82,-4.68,0
24.918,-3.82,-4.68,0
24.938,-3.95,-4.68,0
24.958,-3.95,-4.68,0
24.978,-3.82,-4.68,0
24.998,-3.82,-4.68,0
25.018,-3.7,-4.68,0
25.038,-3.7,-4.68,0
25.058,-3.7,-4.68,0
25.078,-3.82,-4.56,0
25.098,-3.82,-4.56,0
25.118,-3.82,-4.56,0
25.138,-3.82,-4.56,0
25.158,-3.82,-4.56,0
25.178,-3.82,-4.56,0
25.198,-3.7,-4.56,0
25.218,-3.82,-4.56,0
25.238,-3.7,-4.56,0
25.258,-3.82,-4.56,0
25.278,-3.82,-4.56,0
25.298,-3.82,-4.56,0
25.318,-3.7,-4.44,0
25.338,-3.7,-4.44,0
25.358,-3.58,-4.44,0
25.378,-3.58,-4.44,0
25.398,-3.58,-4.44,0
25.418,-3.7,-4.44,0
25.438,-3.82,-4.44,0
25.458,-4.56,-5.29,0
25.478,-5.66,-6.27,0
25.498,-6.51,-7.0,0
25.518,-6.88,-8.1,0
25.538,-7.49,-8.96,0
25.558,-8.47,-9.45,0
25.578,-9.2,-9.69,0
25.598,-9.57,-9.81,0
25.618,-9.69,-9.93,0
25.638,-9.81,-10.06,0
25.658,-9.93,-10.06,0
25.678,-9.93,-10.06,0
25.698,-9.93,-10.18,0
25.718,-10.06,-10.18,0
25.718,-10.06,-10.18,0
25.738,-10.06,-10.18,0
25.758,-10.06,-10.18,0
25.778,-10.18,-10.18,0
25.798,-10.18,-10.18,0
25.818,-10.18,-10.18,0
25.838,-10.18,-10.18,0
25.858,-10.3,-10.18,0
25.878,-10.3,-10.18,0
25.898,-10.3,-10.18,0
25.918,-10.3,-10.18,0
25.938,-10.3,-10.3,0
25.958,-10.3,-10.3,0
25.978,-10.3,-10.3,0
25.998,-10.3,-10.3,0
26.018,-10.3,-10.3,0
26.038,-10.3,-10.3,0
26.058,-10.3,-10.3,0
26.078,-10.3,-10.3,0
26.098,-10.3,-10.3,0
26.119,-10.3,-10.3,0
26.139,-10.3,-10.3,1
26.159,-10.3,-10.3,1
26.179,-10.3,-10.3,1
26.199,-10.3,-10.3,1
26.219,-10.3,-10.3,1
26.239,-10.3,-10.3,1
26.259,-10.3,-10.3,1
26.279,-10.3,-10.3,1
26.299,-10.3,-10.3,1
26.319,-10.3,-10.3,1
26.339,-10.3,-10.42,1
26.359,-10.42,-10.42,1
26.379,-10.3,-10.42,1
26.399,-10.3,-10.3,1
26.419,-9.69,-9.81,1
26.439,-9.08,-9.2,1
26.459,-8.59,-8.35,1
26.479,-8.1,-7.49,1
26.499,-7.25,-6.88,1
26.519,-6.51,-6.51,1
26.539,-5.9,-6.27,1
26.559,-5.41,-6.02,1
26.579,-5.17,-5.78,1
26.599,-4.92,-5.54,1
26.619,-4.92,-5.41,1
26.639,-4.8,-5.29,1
26.659,-4.56,-5.17,1
26.679,-4.56,-5.05,1
26.699,-4.44,-5.05,1
26.719,-4.19,-4.92,1
26.739,-4.07,-4.92,0
26.759,-4.07,-4.92,0
26.779,-4.19,-4.92,0
26.799,-4.07,-4.92,0
26.819,-3.95,-4.8,0
26.839,-3.95,-4.8,0
26.859,-3.95,-4.68,0
26.879,-3.82,-4.68,0
26.899,-3.82,-4.68,0
26.92,-3.95,-4.68,0
26.94,-3.95,-4.68,0
26.96,-3.95,-4.68,0
26.98,-3.82,-4.68,0
27.0,-3.82,-4.68,0
27.02,-3.82,-4.68,0
27.04,-3.7,-4.68,0
27.06,-3.7,-4.68,0
27.08,-3.82,-4.56,0
27.1,-3.82,-4.56,0
27.12,-3.7,-4.68,0
27.14,-3.7,-4.56,0
27.16,-3.7,-4.56,0
27.18,-3.7,-4.56,0
27.2,-3.58,-4.68,0
27.22,-3.7,-4.68,0
27.24,-3.7,-4.68,0
27.26,-3.7,-4.68,0
27.28,-3.7,-4.68,0
27.3,-3.7,-4.56,0
27.32,-3.7,-4.56,0
27.34,-3.58,-4.56,0
27.36,-3.58,-4.56,0
27.38,-3.58,-4.44,0
27.4,-3.58,-4.44,0
27.42,-3.82,-4.56,0
27.44,-3.95,-4.68,0
27.46,-5.05,-5.78,0
27.48,-6.02,-6.63,0
27.5,-6.63,-7.25,0
27.52,-7.12,-8.47,0
27.54,-7.86,-9.2,0
27.56,-8.83,-9.57,0
27.58,-9.45,-9.81,0
27.6,-9.69,-9.93,0
27.62,-9.81,-9.93,0
27.64,-9.81,-10.06,0
27.66,-10.06,-10.06,0
27.68,-10.06,-10.06,0
27.7,-10.06,-10.06,0
27.72,-10.18,-10.06,0
27.72,-10.18,-10.18,0
27.74,-10.18,-10.18,0
27.76,-10.18,-10.18,0
27.78,-10.18,-10.18,0
27.8,-10.18,-10.18,0
27.82,-10.18,-10.18,0
27.84,-10.18,-10.18,0
27.86,-10.18,-10.18,0
27.88,-10.18,-10.18,0
27.9,-10.18,-10.18,0
27.92,-10.18,-10.18,0
27.942,-10.18,-10.3,0
27.96,-10.18,-10.3,0
27.98,-10.18,-10.3,0
28.0,-10.18,-10.3,0
28.02,-10.18,-10.3,0
28.04,-10.3,-10.3,0
28.06,-10.3,-10.3,0
28.081,-10.3,-10.3,0
28.1,-10.3,-10.3,0
28.12,-10.3,-10.3,0
28.121,-10.3,-10.3,1
28.141,-10.3,-10.3,1
28.165,-10.3,-10.3,1
28.189,-10.3,-10.3,1
28.21,,,
28.221,-10.3,-10.3,1
28.241,-10.3,-10.3,1
28.261,-10.42,-10.3,1
28.283,-10.3,-10.3,1
28.308,-10.42,-10.3,1
28.332,-10.3,-10.3,1
28.353,,,
28.361,-10.42,-10.3,1
28.381,,,
28.401,-10.42,-10.42,1
28.421,-10.42,-10.42,1
28.441,-10.06,-10.06,1
28.461,-9.45,-9.45,1
28.481,-8.83,-8.83,1
28.501,-8.47,-7.86,1
28.521,-7.73,-7.12,1
28.538,-6.88,-6.63,1
28.562,-6.27,-6.39,1
28.583,-5.66,-6.02,1
28.603,-5.29,-5.78,1
28.627,-4.92,-5.66,1
28.648,-4.92,-5.41,1
28.669,,,
28.678,-4.8,-5.29,1
28.698,-4.68,-5.17,1
28.718,-4.44,-5.17,1
28.738,-4.44,-5.05,1
28.758,-4.31,-5.05,1
28.779,-4.07,-4.92,0
28.8,,,
28.818,-4.07,-4.92,0
28.838,-4.07,-4.92,0
28.858,-4.07,-4.92,0
28.878,-3.95,-4.92,0
28.898,-3.82,-4.8,0
28.918,-4.07,-4.8,0
28.938,-3.95,-4.68,0
28.958,-3.82,-4.68,0
28.978,-3.95,-4.68,0
28.998,,,
29.018,-3.95,-4.68,0
29.038,-4.07,-4.68,0
29.058,-3.95,-4.8,0
29.078,-3.95,-4.68,0
29.098,-3.95,-4.68,0
29.118,-3.82,-4.68,0
29.138,-3.7,-4.68,0
29.158,-3.82,-4.68,0
29.178,-3.82,-4.56,0
29.198,-3.82,-4.56,0
29.218,-3.82,-4.56,0
29.238,-3.82,-4.56,0
29.258,,,
29.278,-3.82,-4.56,0
29.298,-3.7,-4.56,0
29.318,-3.7,-4.56,0
29.338,-3.7,-4.68,0
29.349,-3.7,-4.68,0
29.369,-3.7,-4.56,0
29.389,,,
29.409,-3.7,-4.56,0
29.429,-3.7,-4.56,0
29.449,-3.58,-4.44,0
29.469,-3.58,-4.44,0
29.489,-3.46,-4.44,0
29.509,-3.46,-4.44,0
29.529,-3.58,-4.44,0
29.549,-3.7,-4.44,0
29.569,-4.31,-5.05,0
29.59,-5.54,-6.15,0
29.611,-6.27,-6.76,0
29.631,-6.76,-7.73,0
29.656,-7.25,-8.83,0
29.676,-8.35,-9.32,0
29.697,-9.08,-9.57,0
29.721,-9.57,-9.81,0
29.742,-9.69,-9.93,0
29.763,-9.81,-9.93,0
29.787,-9.93,-9.93,0
29.807,-9.93,-10.06,0
29.832,-10.06,-10.06,0
29.852,,,
29.863,-10.18,-10.18,0
29.883,-10.06,-10.18,0
29.903,-10.18,-10.3,0
29.926,-10.18,-10.18,0
29.95,-10.3,-10.18,0
29.975,-10.18,-10.3,0
29.996,,,
30.003,-10.18,-10.18,0
30.023,,,
30.043,-10.3,-10.3,0
30.063,-10.3,-10.3,0
30.083,-10.3,-10.3,0
30.103,-10.3,-10.3,0
30.123,-10.3,-10.3,0
30.143,-10.3,-10.3,0
30.164,,,
30.184,-10.3,-10.3,0
30.204,-10.3,-10.3,0
30.224,-10.3,-10.3,0
30.244,-10.3,-10.3,0
30.264,-10.18,-10.3,0
30.286,-10.3,-10.3,0
30.308,,,
30.324,-10.3,-10.3,0
30.344,-10.3,-10.3,0
30.364,-10.3,-10.3,0
30.384,-10.3,-10.3,0
30.405,-10.3,-10.3,1
30.43,-10.3,-10.3,1
30.454,-10.18,-10.3,1
30.475,,,
30.484,-10.3,-10.3,1
30.504,-10.3,-10.3,1
30.524,-10.3,-10.3,1
30.548,-10.3,-10.3,1
30.574,-10.3,-10.3,1
30.597,-10.3,-10.3,1
30.622,-10.42,-10.3,1
30.643,,,
30.654,-10.42,-10.42,1
30.674,-10.42,-10.3,1
30.694,-10.42,-10.42,1
30.716,-9.93,-9.81,1
30.737,,,
30.754,-9.32,-9.32,1
30.774,-8.71,-8.59,1
30.794,-8.22,-7.61,1
30.815,-7.49,-7.0,1
30.834,-6.63,-6.51,1
30.854,-6.02,-6.27,1
30.874,-5.54,-6.02,1
30.894,-5.17,-5.78,1
30.914,-4.92,-5.54,1
30.934,,,
30.954,-4.8,-5.41,1
30.974,-4.68,-5.29,1
30.979,-4.56,-5.29,1
30.999,,,
31.019,-4.44,-5.17,1
31.039,-4.44,-5.05,1
31.059,-4.31,-5.05,1
31.079,-4.07,-4.92,0
31.099,-4.07,-4.92,0
31.119,-4.07,-4.92,0
31.139,-3.95,-4.92,0
31.159,-3.95,-4.8,0
31.179,-3.95,-4.8,0
31.199,,,
31.219,-3.95,-4.8,0
31.239,-3.95,-4.68,0
31.259,-3.82,-4.68,0
31.279,-3.95,-4.68,0
31.299,-3.95,-4.68,0
31.319,-3.82,-4.68,0
31.339,-3.7,-4.68,0
31.359,-3.82,-4.68,0
31.379,-3.82,-4.68,0
31.392,,,
31.412,-3.7,-4.68,0
31.432,-3.7,-4.68,0
31.452,-3.82,-4.56,0
31.472,-3.82,-4.56,0
31.492,-3.82,-4.56,0
31.512,-3.82,-4.56,0
31.532,-3.82,-4.44,0
31.553,-3.95,-4.56,0
31.572,-3.82,-4.56,0
31.593,-3.82,-4.56,0
31.613,-3.82,-4.68,0
31.634,-3.82,-4.68,0
31.658,-3.82,-4.56,0
31.679,-3.7,-4.56,0
31.699,-3.82,-4.44,0
31.724,-3.7,-4.44,0
31.744,-3.58,-4.44,0
31.765,-3.58,-4.44,0
31.789,-3.58,-4.44,0
31.811,-3.7,-4.44,0
31.833,,,
31.851,-3.82,-4.56,0
31.871,-4.8,-5.54,0
31.891,-5.9,-6.51,0
31.911,-6.51,-7.12,0
31.932,-6.88,-8.35,0
31.952,-7.61,-9.08,0
31.971,-8.59,-9.57,0
31.991,-9.2,-9.69,0
32.011,-9.57,-9.81,0
32.031,,,
32.051,-9.69,-9.93,0
32.071,-9.81,-10.06,0
32.091,-9.93,-10.06,0
32.111,-9.93,-10.06,0
32.131,-10.06,-10.18,0
32.151,-10.06,-10.18,0
32.171,-10.06,-10.18,0
32.191,-10.06,-10.18,0
32.216,-10.18,-10.18,0
32.24,-10.18,-10.18,0
32.264,-10.18,-10.18,0
32.285,,,
32.296,-10.18,-10.18,0
32.32,-10.3,-10.18,0
32.336,-10.3,-10.18,0
32.359,-10.3,-10.18,0
32.383,-10.3,-10.18,0
32.408,-10.3,-10.18,0
32.428,,,
32.436,-10.3,-10.18,0
32.456,,,
32.476,-10.3,-10.18,0
32.496,-10.3,-10.3,0
32.516,-10.3,-10.3,0
32.536,-10.3,-10.3,0
32.556,-10.3,-10.3,0
32.576,-10.3,-10.3,0
32.596,,,
32.616,-10.3,-10.3,0
32.636,-10.3,-10.3,0
32.656,-10.3,-10.3,0
32.676,-10.3,-10.3,1
32.696,-10.3,-10.3,1
32.719,-10.3,-10.3,1
32.739,,,
32.756,-10.3,-10.3,1
32.776,-10.3,-10.3,1
32.796,-10.3,-10.3,1
32.816,-10.3,-10.3,1
32.838,-10.3,-10.3,1
32.862,-10.3,-10.3,1
32.887,-10.3,-10.42,1
32.908,,,
32.916,-10.42,-10.42,1
32.936,-10.3,-10.42,1
32.957,-10.3,-10.42,1
32.981,-10.3,-10.3,1
33.006,-9.57,-9.69,1
33.027,-8.96,-9.08,1
33.051,-8.59,-8.22,1
33.072,-7.98,-7.37,1
33.092,-7.12,-6.76,1
33.116,-6.39,-6.39,1
33.137,-5.78,-6.15,1
33.157,-5.41,-5.9,1
33.182,-5.05,-5.66,1
33.202,-4.92,-5.54,1
33.224,-4.8,-5.41,1
33.247,-4.68,-5.29,1
33.268,-4.56,-5.17,1
33.289,,,
33.289,,,
33.307,-4.44,-5.05,1
33.327,-4.44,-5.05,1
33.347,-4.31,-4.92,1
33.367,-4.07,-4.92,0
33.387,-4.07,-4.92,0
33.407,-4.07,-4.92,0
33.427,-3.95,-4.8,0
33.447,-3.95,-4.8,0
33.467,-3.95,-4.68,0
33.487,,,
33.507,-3.95,-4.68,0
33.527,-3.82,-4.68,0
33.547,-3.82,-4.68,0
33.567,-3.95,-4.68,0
33.587,-4.07,-4.68,0
33.607,-3.95,-4.68,0
33.627,-3.82,-4.68,0
33.647,-3.95,-4.68,0
33.667,-3.82,-4.68,0
33.687,-3.7,-4.68,0
33.707,-3.7,-4.68,0
33.727,-3.82,-4.68,0
33.747,,,
33.767,-3.7,-4.68,0
33.787,-3.7,-4.68,0
33.807,-3.7,-4.56,0
33.828,-3.82,-4.68,0
33.848,-3.7,-4.68,0
33.868,-3.7,-4.68,0
33.888,-3.7,-4.68,0
33.908,-3.7,-4.68,0
33.928,-3.7,-4.68,0
33.948,-3.7,-4.68,0
33.968,-3.7,-4.56,0
33.989,-3.7,-4.56,0
34.009,,,
34.028,-3.7,-4.56,0
34.048,-3.58,-4.44,0
34.068,-3.58,-4.44,0
34.088,-3.58,-4.44,0
34.108,-3.7,-4.56,0
34.128,-4.07,-4.8,0
34.148,-5.29,-5.9,0
34.168,-6.27,-6.63,0
34.188,-6.76,-7.49,0
34.21,-7.25,-8.59,0
34.231,-8.1,-9.2,0
34.251,-8.96,-9.57,0
34.275,-9.45,-9.69,0
34.296,-9.69,-9.81,0
34.316,-9.81,-9.93,0
34.341,-9.93,-9.93,0
34.362,-10.06,-10.06,0
34.386,-10.06,-10.06,0
34.41,-10.06,-10.06,0
34.431,,,
34.431,,,
34.451,-10.06,-10.06,0
34.471,-10.06,-10.18,0
34.491,-10.06,-10.18,0
34.511,-10.18,-10.18,0
34.531,-10.18,-10.18,0
34.554,-10.18,-10.18,0
34.579,-10.18,-10.18,0
34.599,,,
34.611,-10.18,-10.18,0
34.631,-10.18,-10.18,0
34.649,-10.18,-10.18,0
34.673,-10.18,-10.18,0
34.697,-10.18,-10.3,0
34.722,-10.18,-10.3,0
34.742,,,
34.749,-10.3,-10.3,0
34.769,,,
34.789,-10.18,-10.3,0
34.809,-10.18,-10.3,0
34.829,-10.18,-10.3,0
34.849,-10.3,-10.3,0
34.869,-10.3,-10.3,0
34.89,-10.3,-10.3,0
34.91,,,
34.929,-10.3,-10.3,0
34.949,-10.3,-10.3,0
34.969,-10.3,-10.3,1
34.989,-10.3,-10.3,1
35.009,-10.3,-10.3,1
35.033,-10.3,-10.3,1
35.058,-10.3,-10.3,1
35.078,,,
35.098,-10.3,-10.3,1
35.118,-10.3,-10.3,1
35.138,-10.3,-10.3,1
35.158,-10.3,-10.3,1
35.178,-10.42,-10.42,1
35.201,-10.42,-10.3,1
35.222,,,
35.238,-10.3,-10.3,1
35.258,-10.3,-10.3,1
35.278,-10.06,-9.93,1
35.298,-9.32,-9.32,1
35.318,-8.83,-8.71,1
35.338,,,
35.358,-8.35,-7.73,1
35.378,-7.73,-7.12,1
35.398,-6.76,-6.63,1
35.418,-6.15,-6.27,1
35.438,-5.66,-6.02,1
35.459,-5.17,-5.9,1
35.479,-4.92,-5.66,1
35.499,-4.8,-5.41,1
35.519,-4.8,-5.29,1
35.539,-4.68,-5.29,1
35.559,-4.56,-5.17,1
35.579,-4.44,-5.05,1
35.602,-4.31,-5.05,1
35.623,-4.19,-5.05,0
35.644,-4.07,-5.05,0
35.668,-4.07,-5.05,0
35.688,-4.07,-5.05,0
35.709,-4.07,-4.92,0
35.733,-4.07,-4.8,0
35.754,-4.07,-4.8,0
35.774,-4.07,-4.8,0
35.799,-3.95,-4.8,0
35.819,-3.95,-4.8,0
35.84,-4.07,-4.8,0
35.865,-4.19,-4.8,0
35.885,-4.07,-4.8,0
35.906,,,
35.925,-3.95,-4.8,0
35.945,-3.95,-4.8,0
35.965,-3.95,-4.8,0
35.985,-3.82,-4.8,0
36.005,-3.82,-4.68,0
36.025,-3.95,-4.68,0
36.045,-3.82,-4.68,0
36.065,-3.95,-4.68,0
36.085,-3.82,-4.56,0
36.105,,,
36.125,-3.82,-4.56,0
36.145,-3.95,-4.68,0
36.165,-3.82,-4.68,0
36.185,-3.82,-4.68,0
36.205,-3.82,-4.68,0
36.225,-3.82,-4.68,0
36.245,-3.82,-4.56,0
36.265,-3.82,-4.56,0
36.285,-3.82,-4.56,0
36.305,-3.7,-4.56,0
36.325,-3.58,-4.56,0
36.345,-3.7,-4.44,0
36.365,,,
36.385,-3.7,-4.56,0
36.405,-3.82,-4.56,0
36.425,-4.56,-5.29,0
36.445,-5.78,-6.27,0
36.465,-6.51,-7.0,0
36.485,-6.88,-7.98,0
36.505,-7.49,-8.96,0
36.525,-8.47,-9.45,0
36.545,-9.08,-9.69,0
36.565,-9.45,-9.81,0
36.585,-9.69,-9.81,0
36.606,-9.81,-9.93,0
36.626,,,
36.645,-9.93,-9.93,0
36.665,-10.06,-10.06,0
36.676,-10.06,-10.06,0
36.7,-10.06,-10.06,0
36.721,,,
36.736,-10.06,-10.06,0
36.756,-10.18,-10.18,0
36.776,-10.18,-10.18,0
36.796,-10.18,-10.18,0
36.819,-10.18,-10.18,0
36.843,-10.18,-10.18,0
36.864,,,
36.876,-10.18,-10.18,0
36.896,-10.18,-10.18,0
36.916,-10.18,-10.18,0
36.938,-10.3,-10.18,0
36.962,-10.3,-10.18,0
36.987,-10.18,-10.18,0
37.011,-10.3,-10.3,0
37.032,,,
37.036,,,
37.056,-10.3,-10.3,0
37.076,-10.3,-10.3,0
37.081,-10.3,-10.3,0
37.105,-10.3,-10.3,0
37.13,-10.3,-10.3,0
37.155,-10.3,-10.3,0
37.175,,,
37.181,-10.3,-10.18,0
37.201,,,
37.221,-10.3,-10.18,0
37.241,-10.3,-10.3,1
37.261,-10.3,-10.3,1
37.281,-10.3,-10.3,1
37.301,-10.3,-10.3,1
37.322,-10.3,-10.3,1
37.343,,,
37.361,-10.3,-10.3,1
37.381,-10.3,-10.3,1
37.401,-10.3,-10.3,1
37.421,-10.3,-10.3,1
37.441,-10.3,-10.3,1
37.466,-10.42,-10.3,1
37.491,-10.3,-10.3,1
37.511,,,
37.531,-10.3,-10.3,1
37.551,-10.3,-10.3,1
37.571,-9.69,-9.69,1
37.591,-9.2,-9.08,1
37.611,-8.59,-8.35,1
37.631,-8.1,-7.49,1
37.651,-7.37,-6.88,1
37.671,-6.51,-6.51,1
37.691,-5.9,-6.27,1
37.712,,,
37.731,-5.54,-6.02,1
37.751,-5.17,-5.78,1
37.771,-4.92,-5.66,1
37.791,-4.8,-5.41,1
37.811,-4.8,-5.29,1
37.831,-4.8,-5.29,1
37.851,-4.56,-5.17,1
37.871,-4.56,-5.17,1
37.891,-4.44,-5.05,1
37.912,-4.31,-5.05,0
37.933,-4.19,-5.05,0
37.953,-4.19,-5.05,0
37.978,-4.19,-5.05,0
37.998,-4.19,-4.92,0
38.019,-4.07,-4.8,0
38.043,-4.19,-4.8,0
38.064,-4.07,-4.8,0
38.084,-4.07,-4.8,0
38.109,-4.07,-4.8,0
38.129,-4.19,-4.8,0
38.15,,,
38.151,,,
38.171,-4.19,-4.8,0
38.191,-4.07,-4.8,0
38.211,-4.07,-4.8,0
38.231,-4.07,-4.8,0
38.251,-4.07,-4.8,0
38.271,-3.95,-4.8,0
38.291,-3.95,-4.68,0
38.311,-4.07,-4.68,0
38.334,-3.95,-4.68,0
38.351,-3.95,-4.68,0
38.374,-4.07,-4.68,0
38.392,-4.07,-4.68,0
38.412,,,
38.431,-4.07,-4.68,0
38.451,-3.95,-4.8,0
38.471,-3.95,-4.8,0
38.491,-3.95,-4.8,0
38.511,-4.07,-4.68,0
38.531,-3.95,-4.68,0
38.553,-3.82,-4.68,0
38.571,-3.95,-4.56,0
38.593,-3.82,-4.56,0
38.611,,,
38.631,-3.82,-4.56,0
38.651,-3.82,-4.56,0
38.671,-3.95,-4.56,0
38.692,-4.07,-4.68,0
38.712,-5.17,-5.78,0
38.732,-6.15,-6.63,0
38.753,-6.76,-7.25,0
38.773,-7.12,-8.47,0
38.792,-7.86,-9.2,0
38.812,-8.83,-9.57,0
38.832,-9.32,-9.69,0
38.852,-9.57,-9.81,0
38.872,,,
38.892,-9.81,-9.93,0
38.912,-9.93,-9.93,0
38.932,-9.93,-10.06,0
38.953,-10.06,-10.06,0
38.972,-10.06,-10.06,0
38.993,-10.06,-10.06,0
39.012,,,
39.032,-10.06,-10.06,0
39.052,-10.06,-10.18,0
39.072,-10.18,-10.18,0
39.092,-10.06,-10.18,0
39.112,-10.06,-10.18,0
39.133,-10.18,-10.18,0
39.153,,,
39.172,-10.18,-10.18,0
39.192,-10.18,-10.18,0
39.212,-10.18,-10.18,0
39.232,-10.18,-10.18,0
39.252,-10.06,-10.18,0
39.276,-10.18,-10.18,0
39.297,,,
39.312,-10.18,-10.18,0
39.332,-10.18,-10.18,0
39.352,-10.18,-10.18,0
39.372,-10.18,-10.18,0
39.395,-10.18,-10.18,0
39.419,-10.18,-10.18,0
39.444,-10.18,-10.18,0
39.465,,,
39.472,-10.3,-10.18,0
39.493,,,
39.513,-10.3,-10.18,0
39.533,-10.3,-10.3,1
39.553,-10.18,-10.3,1
39.573,-10.18,-10.3,1
39.593,-10.18,-10.3,1
39.613,-10.18,-10.3,1
39.633,,,
39.653,-10.3,-10.3,1
39.673,-10.3,-10.3,1
39.693,-10.3,-10.3,1
39.713,-10.18,-10.3,1
39.733,-10.3,-10.3,1
39.755,-10.3,-10.3,1
39.776,,,
39.793,-10.3,-10.3,1
39.813,-10.3,-10.3,1
39.833,-10.06,-10.06,1
39.853,-9.45,-9.45,1
39.873,,,
39.895,-8.83,-8.83,1
39.915,-8.35,-7.98,1
39.935,-7.86,-7.25,1
39.955,-7.0,-6.76,1
39.975,-6.27,-6.39,1
39.995,-5.78,-6.15,1
40.016,-5.41,-5.9,1
40.035,-5.05,-5.66,1
40.055,-4.92,-5.54,1
40.075,-4.8,-5.41,1
40.095,-4.8,-5.29,1
40.115,-4.68,-5.17,1
40.135,,,
40.155,-4.56,-5.17,1
40.175,-4.56,-5.17,1
40.195,-4.44,-5.05,0
40.215,-4.31,-5.05,0
40.235,-4.19,-5.05,0
40.255,-4.31,-5.05,0
40.276,-4.19,-4.92,0
