Time (s),Pressure 1 (kPa),Pressure 2 (kPa),Switch State
0.131,-7.61,-7.86,1
0.151,-7.61,-7.98,1
0.171,-7.61,-7.86,1
0.191,-7.61,-7.86,1
0.212,-7.61,-7.98,1
0.231,-7.61,-7.86,1
0.252,-7.61,-7.98,1
0.271,-7.61,-7.86,1
0.292,-7.61,-7.86,1
0.312,-7.61,-7.98,1
0.332,-7.49,-7.98,1
0.351,-7.61,-7.86,1
0.372,-7.61,-7.86,1
0.391,-7.61,-7.86,1
0.412,-7.61,-7.98,1
0.431,-7.61,-7.98,1
0.451,-7.61,-7.98,1
0.471,-7.61,-7.86,1
0.491,-7.61,-7.86,1
0.511,-7.61,-7.86,1
0.531,-7.61,-7.98,1
0.532,-7.61,-7.98,1
0.552,-7.61,-7.86,1
0.573,-7.61,-7.98,1
0.593,-7.61,-7.86,1
0.612,-7.61,-7.86,1
0.633,-7.61,-7.86,1
0.653,-7.61,-7.86,1
0.673,-7.61,-7.86,1
0.693,-7.61,-7.86,1
0.713,-7.61,-7.86,1
0.733,-7.61,-7.86,1
0.752,-7.61,-7.86,1
0.773,-7.61,-7.86,1
0.793,-7.61,-7.98,1
0.813,-7.61,-7.98,1
0.833,-7.61,-7.86,1
0.853,-7.61,-7.86,1
0.873,-7.49,-7.86,1
0.893,-7.61,-7.86,1
0.912,-7.61,-7.86,1
0.932,-7.61,-7.86,1
0.953,-7.61,-7.86,1
0.973,-7.61,-7.86,1
0.993,-7.61,-7.86,1
1.013,-7.49,-7.86,1
1.033,-7.61,-7.86,1
1.053,-7.61,-7.98,1
1.073,-7.61,-7.86,1
1.093,-7.49,-7.86,1
1.113,-7.61,-7.86,1
1.134,-7.61,-7.86,1
1.153,-7.49,-7.86,1
1.173,-7.61,-7.86,1
1.193,-7.61,-7.86,1
1.213,-7.61,-7.86,1
1.233,-7.61,-7.86,1
1.253,-7.61,-7.86,1
1.273,-7.61,-7.98,1
1.293,-7.61,-7.86,1
1.313,-7.61,-7.86,1
1.333,-7.61,-7.98,1
1.334,-7.61,-7.86,1
1.354,-7.61,-7.86,1
1.375,-7.61,-7.98,1
1.394,-7.61,-7.86,1
1.415,-7.61,-7.86,1
1.434,-7.61,-7.98,1
1.454,-7.61,-7.86,1
1.474,-7.61,-7.98,1
1.494,-7.61,-7.98,1
1.514,-7.61,-7.86,1
1.534,-7.61,-7.86,1
1.554,-7.61,-7.86,1
1.574,-7.61,-7.98,1
1.594,-7.61,-7.86,1
1.614,-7.61,-7.98,1
1.634,-7.61,-7.98,1
1.654,-7.61,-7.86,1
1.674,-7.61,-7.98,1
1.694,-7.61,-7.86,1
1.715,-7.61,-7.86,1
1.734,-7.61,-7.86,1
1.734,-7.49,-7.86,1
1.754,-7.61,-7.86,1
1.775,-7.61,-7.98,1
1.795,-7.61,-7.98,1
1.815,-7.61,-7.98,1
1.834,-7.61,-7.98,1
1.854,-7.61,-7.98,1
1.875,-7.61,-7.86,1
1.895,-7.61,-7.86,1
1.915,-7.61,-7.86,1
1.935,-7.61,-7.86,1
1.955,-7.61,-7.86,1
1.975,-7.61,-7.98,1
1.995,-7.61,-7.86,1
2.015,-7.61,-7.86,1
2.035,-7.61,-7.86,1
2.055,-7.61,-7.86,1
2.075,-7.61,-7.86,1
2.095,-7.61,-7.98,1
2.115,-7.61,-7.86,1
2.136,-7.61,-7.86,1
2.156,-7.61,-7.86,1
2.177,-7.61,-7.86,1
2.197,-7.61,-7.86,1
2.216,-7.61,-7.86,1
2.236,-7.61,-7.98,1
2.256,-7.61,-7.98,1
2.276,-7.49,-7.98,1
2.296,-7.61,-7.86,1
2.316,-7.61,-7.86,1
2.337,-7.61,-7.86,1
2.356,-7.61,-7.86,1
2.377,-7.61,-7.86,1
2.396,-7.61,-7.98,1
2.416,-7.61,-7.98,1
2.437,-7.61,-7.98,1
2.456,-7.61,-7.86,1
2.476,-7.61,-7.86,1
2.496,-7.61,-7.86,1
2.518,-7.61,-7.86,1
2.536,-7.61,-7.86,1
2.537,-7.61,-7.98,1
2.558,-7.61,-7.86,1
2.577,-7.61,-7.98,1
2.597,-7.49,-7.86,1
2.618,-7.61,-7.86,1
2.638,-7.61,-7.98,1
2.657,-7.49,-7.86,1
2.678,-7.61,-7.86,1
2.697,-7.61,-7.98,1
2.717,-7.61,-7.98,1
2.738,-7.61,-7.86,1
2.757,-7.61,-7.98,1
2.778,-7.61,-7.98,1
2.798,-7.61,-7.86,1
2.818,-7.61,-7.98,1
2.837,-7.61,-7.86,1
2.857,-7.61,-7.98,1
2.877,-7.61,-7.86,1
2.897,-7.61,-7.98,1
2.918,-7.61,-7.86,1
2.938,-7.49,-7.86,1
2.958,-7.61,-7.86,1
2.978,-7.49,-7.98,1
2.998,-7.61,-7.98,1
3.019,-7.61,-7.86,1
3.038,-7.61,-7.98,1
3.058,-7.61,-7.86,1
3.079,-7.61,-7.86,1
3.098,-7.61,-7.86,1
3.119,-7.61,-7.86,1
3.139,-7.61,-7.86,1
3.159,-7.61,-7.86,1
3.178,-7.61,-7.86,1
3.204,-7.49,-7.86,1
3.218,-7.61,-7.98,1
3.239,-7.61,-7.86,1
3.258,-7.61,-7.98,1
3.278,-7.61,-7.86,1
3.304,-7.61,-7.86,1
3.318,-7.49,-7.86,1
3.338,-7.25,-7.86,1
3.358,-7.0,-7.98,1
3.378,-6.88,-7.98,1
3.399,-7.0,-7.86,1
3.418,-7.12,-7.86,1
3.439,-7.25,-7.86,1
3.459,-7.37,-7.86,1
3.478,-7.37,-7.86,1
3.499,-7.37,-7.86,1
3.518,-7.49,-7.86,1
3.538,-7.49,-7.86,1
3.558,-7.49,-7.86,1
3.578,-7.49,-7.98,1
3.598,-7.49,-7.86,1
3.618,-7.49,-7.86,1
3.638,-7.49,-7.86,1
3.658,-7.49,-7.86,1
3.687,-7.49,-7.98,1
3.698,-7.49,-7.98,1
3.719,-7.49,-8.22,1
3.739,-7.49,-8.71,1
3.739,-7.49,-8.83,1
3.759,-7.61,-9.08,1
3.787,-7.61,-8.96,1
3.8,-7.61,-8.59,1
3.819,-7.61,-8.47,1
3.839,-7.61,-8.35,1
3.859,-7.49,-8.1,1
3.879,-7.61,-8.1,1
3.9,-7.49,-8.1,1
3.92,-7.61,-7.98,1
3.939,-7.61,-7.98,1
3.96,-7.49,-7.98,1
3.979,-7.61,-7.98,1
3.999,-7.49,-7.98,1
4.019,-7.61,-7.98,1
4.039,-7.61,-7.98,1
4.059,-7.49,-7.98,1
4.079,-7.49,-7.98,1
4.104,-7.61,-7.98,1
4.119,-7.49,-7.98,1
4.139,-7.61,-7.98,1
4.139,-7.61,-7.98,1
4.159,-7.61,-7.98,1
4.18,-7.49,-7.98,1
4.2,-7.61,-7.86,1
4.219,-7.61,-7.86,1
4.239,-7.61,-7.98,1
4.26,-7.61,-7.98,1
4.287,-7.61,-7.98,1
4.299,-7.61,-7.98,1
4.32,-7.49,-7.98,1
4.34,-7.61,-7.86,1
4.368,-7.61,-7.98,1
4.379,-7.49,-7.86,1
4.403,-7.61,-7.98,1
4.42,-7.61,-7.86,1
4.439,-7.61,-7.86,1
4.459,-7.61,-7.86,1
4.48,-7.61,-7.98,1
4.5,-7.61,-7.86,1
4.52,-7.49,-7.86,1
4.539,-7.49,-7.86,1
4.559,-7.61,-7.98,1
4.58,-7.61,-7.98,1
4.6,-7.61,-7.98,1
4.62,-7.12,-7.86,1
4.639,-5.9,-7.25,1
4.66,-4.68,-6.27,1
4.687,-4.07,-5.54,1
4.7,-3.7,-4.8,1
4.72,-3.21,-4.31,1
4.74,-2.6,-3.82,1
4.761,-1.99,-3.46,1
4.78,-1.87,-3.21,1
4.804,-1.75,-2.97,1
4.819,-1.87,-2.72,0
4.84,-1.5,-2.6,0
4.862,-0.89,-2.48,0
4.88,-1.01,-2.36,0
4.9,-1.01,-2.24,0
4.92,-1.26,-2.11,0
4.94,-0.77,-1.99,0
4.94,-0.77,-1.87,0
4.961,-0.77,-1.87,0
4.981,-0.77,-1.87,0
5.001,-0.89,-1.87,0
5.02,-0.4,-1.75,0
5.041,-0.4,-1.75,0
5.06,-0.65,-1.75,0
5.081,-0.77,-1.63,0
5.103,-0.77,-1.75,0
5.12,-0.28,-1.75,0
5.141,-0.28,-1.75,0
5.16,-0.4,-1.63,0
5.18,-0.4,-1.63,0
5.2,-0.28,-1.5,0
5.221,-0.65,-1.87,0
5.24,-2.72,-3.7,0
5.261,-4.68,-5.41,0
5.28,-6.02,-7.86,0
5.3,-8.22,-9.45,0
5.321,-9.81,-10.18,0
5.341,-10.42,-10.54,0
5.362,-10.67,-10.79,0
5.382,-10.79,-10.91,0
5.401,-11.03,-11.03,0
5.422,-11.16,-11.16,0
5.442,-11.16,-11.16,0
5.461,-11.16,-11.16,0
5.481,-11.28,-11.16,0
5.502,-11.28,-11.16,0
5.522,-11.28,-11.28,0
5.541,-11.28,-11.28,0
5.561,-11.28,-11.28,0
5.582,-11.28,-11.28,0
5.602,-11.28,-11.28,0
5.622,-11.4,-11.28,0
5.641,-11.28,-11.4,0
5.662,-11.28,-11.28,1
5.681,-11.28,-11.28,1
5.702,-11.4,-11.4,1
5.721,-11.4,-11.4,1
5.742,-11.28,-11.4,1
5.762,-11.28,-11.4,1
5.782,-11.4,-11.4,1
5.802,-11.4,-11.4,1
5.822,-11.28,-11.28,1
5.843,-10.79,-10.79,1
5.863,-9.93,-9.81,1
5.882,-8.71,-8.35,1
5.902,-7.12,-7.12,1
5.922,-5.78,-6.15,1
5.942,-4.8,-5.29,1
5.962,-3.95,-4.68,1
5.982,-3.46,-4.19,1
6.002,-3.09,-3.82,1
6.023,-2.72,-3.7,1
6.042,-2.48,-3.46,0
6.062,-1.99,-3.34,0
6.082,-1.75,-2.97,0
6.102,-1.75,-2.85,0
6.122,-1.75,-2.6,0
6.142,-1.5,-2.48,0
6.163,-1.26,-2.48,0
6.183,-1.26,-2.48,0
6.203,-1.26,-2.36,0
6.223,-1.26,-2.36,0
6.243,-1.01,-2.24,0
6.263,-0.89,-2.11,0
6.283,-0.89,-1.99,0
6.303,-1.01,-1.99,0
6.323,-1.01,-1.99,0
6.343,-0.77,-2.11,0
6.364,-0.77,-2.11,0
6.383,-0.77,-1.99,0
6.403,-0.77,-1.87,0
6.423,-0.77,-1.75,0
6.443,-0.65,-1.75,0
6.463,-0.89,-2.11,0
6.483,-2.85,-3.82,0
6.503,-4.56,-5.41,0
6.522,-5.9,-7.73,0
6.543,-6.76,-9.45,0
6.563,-8.71,-10.18,0
6.583,-10.06,-10.54,0
6.603,-10.54,-10.79,0
6.624,-10.79,-10.91,0
6.643,-10.91,-11.03,0
6.663,-11.03,-11.16,0
6.684,-11.16,-11.16,0
6.704,-11.16,-11.16,0
6.724,-11.16,-11.16,0
6.743,-11.16,-11.16,0
6.764,-11.28,-11.28,0
6.783,-11.28,-11.28,0
6.803,-11.28,-11.28,0
6.823,-11.28,-11.28,0
6.844,-11.28,-11.28,0
6.863,-11.28,-11.28,0
6.883,-11.28,-11.28,0
6.904,-11.4,-11.28,1
6.924,-11.28,-11.28,1
6.944,-11.28,-11.28,1
6.965,-11.28,-11.28,1
6.985,-11.28,-11.28,1
7.005,-11.28,-11.4,1
7.024,-11.28,-11.28,1
7.044,-11.4,-11.4,1
7.065,-11.28,-11.28,1
7.084,-10.79,-10.79,1
7.105,-10.06,-9.93,1
7.124,-9.08,-8.35,1
7.144,-7.25,-7.0,1
7.164,-5.9,-6.02,1
7.185,-4.8,-5.29,1
7.204,-4.07,-4.68,1
7.225,-3.46,-4.19,1
7.245,-3.09,-3.95,1
7.264,-2.85,-3.58,1
7.284,-2.24,-3.34,0
7.305,-1.99,-3.21,0
7.324,-1.99,-2.97,0
7.345,-1.87,-2.85,0
7.366,-1.63,-2.72,0
7.385,-1.38,-2.6,0
7.405,-1.38,-2.48,0
7.425,-1.38,-2.48,0
7.445,-1.38,-2.36,0
7.465,-1.26,-2.24,0
7.485,-1.01,-2.24,0
7.505,-0.89,-2.24,0
7.525,-1.01,-2.11,0
7.545,-1.26,-2.11,0
7.566,-1.01,-2.11,0
7.585,-0.77,-2.11,0
7.605,-0.89,-1.99,0
7.625,-0.89,-1.99,0
7.645,-0.77,-1.99,0
7.665,-0.65,-1.87,0
7.686,-0.77,-1.87,0
7.705,-1.01,-2.11,0
7.725,-2.97,-3.82,0
7.745,-4.8,-5.41,0
7.745,-6.15,-7.73,0
7.765,-8.22,-9.45,0
7.786,-9.57,-10.3,0
7.806,-10.42,-10.54,0
7.825,-10.79,-10.79,0
7.846,-10.91,-10.91,0
7.865,-11.03,-11.03,0
7.885,-11.03,-11.16,0
7.906,-11.16,-11.16,0
7.925,-11.28,-11.16,0
7.945,-11.16,-11.16,0
7.966,-11.16,-11.16,0
7.985,-11.28,-11.28,0
8.005,-11.28,-11.28,0
8.026,-11.28,-11.28,0
8.046,-11.28,-11.28,0
8.065,-11.28,-11.28,0
8.086,-11.28,-11.28,0
8.106,-11.28,-11.28,0
8.126,-11.28,-11.28,1
8.146,-11.28,-11.28,1
8.146,-11.28,-11.28,1
8.166,-11.4,-11.28,1
8.186,-11.28,-11.28,1
8.206,-11.28,-11.28,1
8.226,-11.4,-11.28,1
8.246,-11.4,-11.28,1
8.266,-11.28,-11.28,1
8.286,-10.79,-10.79,1
8.306,-10.06,-10.18,1
8.326,-8.96,-9.45,1
8.346,-7.25,-7.98,1
8.366,-5.78,-6.88,1
8.386,-4.68,-5.9,1
8.406,-3.95,-5.17,1
8.426,-3.58,-4.56,1
8.447,-3.09,-4.19,1
8.467,-2.85,-3.95,1
8.486,-2.24,-3.58,1
8.507,-2.11,-3.34,0
8.526,-1.99,-3.21,0
8.546,-1.75,-2.97,0
8.547,-1.63,-2.72,0
8.568,-1.38,-2.6,0
8.588,-1.38,-2.6,0
8.608,-1.38,-2.48,0
8.628,-1.14,-2.48,0
8.648,-1.14,-2.36,0
8.667,-0.89,-2.36,0
8.688,-1.01,-2.24,0
8.708,-1.01,-2.11,0
8.728,-1.14,-2.11,0
8.748,-0.77,-2.11,0
8.768,-0.65,-2.24,0
8.788,-0.77,-2.11,0
8.807,-0.77,-2.11,0
8.828,-0.65,-2.11,0
8.847,-0.65,-1.99,0
8.867,-0.65,-1.87,0
8.888,-0.89,-2.24,0
8.908,-2.97,-4.07,0
8.927,-4.8,-5.54,0
8.947,-6.02,-6.39,0
8.968,-8.22,-8.1,0
8.988,-9.57,-9.57,0
9.008,-10.42,-10.18,0
9.028,-10.67,-10.67,0
9.048,-10.91,-10.79,0
9.068,-10.91,-10.91,0
9.088,-11.03,-11.03,0
9.108,-11.16,-11.16,0
9.128,-11.16,-11.16,0
9.148,-11.28,-11.16,0
9.17,-11.16,-11.16,0
9.188,-11.28,-11.16,0
9.208,-11.28,-11.16,0
9.237,-11.28,-11.28,0
9.248,-11.28,-11.28,0
9.27,-11.28,-11.28,0
9.288,-11.28,-11.28,0
9.308,-11.28,-11.28,0
9.336,-11.28,-11.28,1
9.348,-11.28,-11.28,1
9.351,-11.28,-11.28,1
9.372,-11.4,-11.28,1
9.392,-11.4,-11.28,1
9.414,-11.4,-11.28,1
9.432,-11.4,-11.28,1
9.452,-11.4,-11.28,1
9.472,-11.28,-11.28,1
9.492,-10.79,-10.79,1
9.512,-9.93,-9.81,1
9.532,-8.96,-8.1,1
9.552,-7.12,-6.76,1
9.571,-5.66,-5.78,1
9.592,-4.68,-5.17,1
9.611,-3.82,-4.56,1
9.637,-3.58,-4.07,1
9.652,-3.09,-3.82,1
9.672,-2.6,-3.7,1
9.692,-1.99,-3.34,0
9.711,-1.87,-3.21,0
9.737,-1.99,-2.97,0
9.752,-1.63,-2.72,0
9.772,-1.38,-2.6,0
9.802,-1.26,-2.48,0
9.812,-1.38,-2.48,0
9.833,-1.14,-2.48,0
9.852,-1.14,-2.36,0
9.872,-0.89,-2.24,0
9.892,-0.77,-2.24,0
9.914,-1.14,-2.11,0
9.933,-0.89,-2.11,0
9.952,-0.77,-2.11,0
9.972,-0.53,-2.11,0
9.992,-0.77,-1.99,0
10.012,-0.77,-1.99,0
10.036,-0.65,-1.87,0
10.053,-0.53,-1.87,0
10.073,-0.53,-1.87,0
10.093,-1.63,-2.97,0
10.112,-3.95,-4.68,0
10.137,-5.54,-6.51,0
10.153,-7.25,-8.71,0
10.173,-9.32,-9.81,0
10.193,-10.3,-10.42,0
10.217,-10.67,-10.67,0
10.233,-10.91,-10.91,0
10.253,-11.03,-11.03,0
10.273,-11.03,-11.03,0
10.293,-11.16,-11.03,0
10.314,-11.28,-11.16,0
10.333,-11.28,-11.16,0
10.353,-11.28,-11.16,0
10.373,-11.28,-11.28,0
10.393,-11.28,-11.28,0
10.413,-11.28,-11.28,0
10.435,-11.28,-11.28,0
10.453,-11.28,-11.28,0
10.473,-11.4,-11.28,0
10.493,-11.4,-11.28,0
10.513,-11.28,-11.28,1
10.537,-11.28,-11.28,1
10.553,-11.28,-11.28,1
10.574,-11.4,-11.28,1
10.594,-11.4,-11.28,1
10.616,-11.28,-11.28,1
10.634,-11.4,-11.28,1
10.654,-11.4,-11.4,1
10.674,-10.91,-10.91,1
10.694,-10.18,-10.18,1
10.719,-9.2,-8.35,1
10.734,-7.61,-7.0,1
10.754,-5.78,-5.9,1
10.774,-4.68,-5.17,1
10.794,-3.95,-4.56,1
10.814,-3.58,-4.19,1
10.834,-3.34,-3.82,1
10.854,-2.72,-3.58,1
10.874,-1.99,-3.46,0
10.894,-1.87,-3.09,0
10.914,-1.99,-2.97,0
10.934,-1.75,-2.72,0
10.954,-1.5,-2.48,0
10.954,-1.26,-2.6,0
10.974,-1.38,-2.48,0
10.994,-1.5,-2.36,0
11.014,-1.14,-2.36,0
11.034,-0.89,-2.24,0
11.054,-0.77,-2.11,0
11.074,-1.01,-2.11,0
11.095,-1.14,-1.99,0
11.114,-0.89,-1.99,0
11.137,-0.53,-2.11,0
11.155,-0.65,-2.11,0
11.174,-0.89,-1.99,0
11.202,-0.53,-1.99,0
11.214,-0.53,-1.87,0
11.234,-0.53,-1.87,0
11.254,-1.38,-2.85,0
11.274,-3.7,-4.56,0
11.294,-5.41,-6.15,0
11.314,-7.37,-8.59,0
11.335,-9.32,-9.93,0
11.354,-10.18,-10.42,0
11.354,-10.67,-10.67,0
11.375,-10.79,-10.91,0
11.395,-10.91,-11.03,0
11.415,-11.03,-11.03,0
11.435,-11.16,-11.16,0
11.454,-11.16,-11.16,0
11.475,-11.28,-11.16,0
11.495,-11.16,-11.28,0
11.514,-11.28,-11.16,0
11.535,-11.28,-11.28,0
11.555,-11.28,-11.28,0
11.575,-11.28,-11.28,0
11.595,-11.28,-11.28,0
11.615,-11.28,-11.28,0
11.637,-11.28,-11.28,0
11.655,-11.28,-11.28,1
11.674,-11.28,-11.28,1
11.694,-11.4,-11.28,1
11.715,-11.4,-11.4,1
11.736,-11.4,-11.4,1
11.755,-11.4,-11.28,1
11.775,-11.4,-11.28,1
11.795,-11.4,-11.28,1
11.815,-11.03,-11.03,1
11.835,-10.3,-10.3,1
11.856,-9.45,-8.83,1
11.875,-7.73,-7.37,1
11.895,-6.27,-6.27,1
11.916,-5.05,-5.41,1
11.935,-3.95,-4.8,1
11.959,-3.46,-4.31,1
11.975,-3.34,-3.95,1
12.003,-2.85,-3.58,1
12.016,-2.36,-3.34,0
12.035,-1.75,-3.21,0
12.055,-1.75,-2.97,0
12.076,-1.87,-2.72,0
12.103,-1.5,-2.6,0
12.116,-1.26,-2.6,0
12.135,-1.14,-2.48,0
12.155,-1.26,-2.48,0
12.155,-1.14,-2.36,0
12.176,-1.01,-2.24,0
12.203,-0.65,-2.24,0
12.216,-0.77,-2.11,0
12.236,-1.14,-1.99,0
12.256,-0.89,-2.11,0
12.276,-0.77,-2.11,0
12.295,-0.65,-1.99,0
12.317,-0.65,-2.11,0
12.336,-0.89,-1.99,0
12.356,-0.65,-1.87,0
12.376,-0.4,-1.87,0
12.395,-1.01,-2.48,0
12.417,-3.46,-4.31,0
12.435,-5.29,-5.9,0
12.456,-6.88,-8.47,0
12.476,-9.08,-9.81,0
12.496,-10.06,-10.42,0
12.515,-10.67,-10.67,0
12.535,-10.91,-10.91,0
12.556,-10.91,-10.91,0
12.576,-11.03,-11.03,0
12.603,-11.16,-11.16,0
12.617,-11.28,-11.16,0
12.636,-11.28,-11.16,0
12.656,-11.28,-11.16,0
12.677,-11.28,-11.16,0
12.703,-11.28,-11.28,0
12.717,-11.28,-11.28,0
12.736,-11.28,-11.28,0
12.757,-11.28,-11.28,0
12.776,-11.28,-11.28,0
12.796,-11.28,-11.28,0
12.817,-11.28,-11.28,1
12.837,-11.4,-11.28,1
12.856,-11.28,-11.28,1
12.876,-11.4,-11.28,1
12.896,-11.4,-11.28,1
12.916,-11.4,-11.28,1
12.937,-11.4,-11.4,1
12.956,-11.28,-11.4,1
12.956,-11.16,-11.03,1
12.976,-10.42,-10.42,1
13.003,-9.69,-8.96,1
13.016,-8.35,-7.37,1
13.037,-6.76,-6.27,1
13.056,-5.41,-5.41,1
13.076,-4.44,-4.8,1
13.097,-3.58,-4.31,1
13.117,-3.09,-3.95,1
13.137,-3.09,-3.7,1
13.157,-2.6,-3.46,0
13.177,-2.11,-3.21,0
13.197,-1.63,-3.09,0
13.217,-1.75,-2.85,0
13.236,-1.75,-2.6,0
13.257,-1.5,-2.6,0
13.276,-1.26,-2.48,0
13.296,-1.14,-2.36,0
13.317,-1.38,-2.36,0
13.337,-1.14,-2.36,0
13.357,-1.01,-2.24,0
13.377,-0.65,-2.11,0
13.397,-0.89,-2.11,0
13.417,-1.26,-1.99,0
13.438,-0.89,-2.24,0
13.457,-0.65,-2.11,0
13.477,-0.53,-1.99,0
13.497,-0.65,-1.99,0
13.518,-0.77,-1.87,0
13.537,-0.53,-1.75,0
13.557,-0.65,-2.11,0
13.577,-2.72,-3.95,0
13.597,-4.68,-5.54,0
13.617,-6.15,-7.98,0
13.637,-8.71,-9.57,0
13.657,-9.81,-10.3,0
13.677,-10.54,-10.54,0
13.697,-10.67,-10.79,0
13.717,-10.79,-10.91,0
13.737,-11.03,-11.03,0
13.758,-11.16,-11.16,0
13.779,-11.16,-11.16,0
13.799,-11.28,-11.16,0
13.818,-11.16,-11.16,0
13.838,-11.28,-11.28,0
13.858,-11.28,-11.28,0
13.879,-11.28,-11.28,0
13.898,-11.28,-11.28,0
13.918,-11.28,-11.28,0
13.939,-11.28,-11.28,0
13.959,-11.28,-11.28,0
13.979,-11.4,-11.28,1
13.999,-11.28,-11.28,1
14.018,-11.28,-11.28,1
14.038,-11.28,-11.4,1
14.058,-11.4,-11.28,1
14.079,-11.4,-11.4,1
14.099,-11.4,-11.4,1
14.119,-11.4,-11.4,1
14.139,-11.16,-11.03,1
14.158,-10.67,-10.54,1
14.179,-9.81,-9.32,1
14.199,-8.59,-7.61,1
14.219,-6.76,-6.39,1
14.238,-5.66,-5.66,1
14.259,-4.56,-4.92,1
14.279,-3.58,-4.44,1
14.299,-3.09,-4.07,1
14.319,-2.97,-3.7,1
14.338,-2.72,-3.34,1
14.358,-1.99,-3.21,0
14.378,-1.5,-2.97,0
14.399,-1.38,-2.72,0
14.419,-1.63,-2.6,0
14.438,-1.26,-2.48,0
14.459,-1.14,-2.24,0
14.479,-0.77,-2.36,0
14.499,-1.01,-2.24,0
14.519,-1.14,-2.11,0
14.539,-0.77,-2.11,0
14.558,-0.53,-1.99,0
14.558,-0.65,-1.87,0
14.579,-0.89,-1.99,0
14.599,-0.89,-1.99,0
14.619,-0.77,-1.87,0
14.639,-0.28,-1.87,0
14.66,-0.53,-1.87,0
14.679,-0.77,-1.63,0
14.699,-0.4,-1.75,0
14.719,-0.28,-1.75,0
14.739,-2.24,-3.58,0
14.759,-4.31,-5.17,0
14.779,-5.9,-6.27,0
14.799,-8.22,-7.49,0
14.819,-9.69,-9.45,0
14.839,-10.42,-10.18,0
14.859,-10.79,-10.54,0
14.879,-10.91,-10.79,0
14.898,-11.03,-11.03,0
14.919,-11.16,-11.16,0
14.939,-11.28,-11.16,0
14.959,-11.16,-11.28,0
14.959,-11.28,-11.28,0
14.979,-11.4,-11.16,0
14.999,-11.28,-11.28,0
15.019,-11.28,-11.28,0
15.039,-11.28,-11.28,0
15.059,-11.28,-11.28,0
15.079,-11.4,-11.28,0
15.099,-11.28,-11.28,0
15.119,-11.28,-11.28,0
15.139,-11.28,-11.28,1
15.159,-11.4,-11.28,1
15.179,-11.4,-11.4,1
15.199,-11.4,-11.4,1
15.219,-11.4,-11.4,1
15.239,-11.4,-11.4,1
15.259,-11.4,-11.4,1
15.279,-11.28,-11.28,1
15.299,-10.91,-10.67,1
15.319,-10.18,-9.69,1
15.339,-9.45,-8.1,1
15.36,-8.83,-6.63,1
15.36,-7.49,-5.66,1
15.38,-5.78,-5.05,1
15.4,-4.92,-4.44,1
15.42,-4.19,-3.95,1
15.44,-3.34,-3.7,0
15.46,-2.97,-3.46,0
15.483,-2.85,-3.21,0
15.5,-2.6,-2.97,0
15.52,-1.99,-2.72,0
15.54,-1.5,-2.48,0
15.56,-1.26,-2.48,0
15.58,-1.5,-2.36,0
15.6,-1.26,-2.24,0
15.621,-1.01,-2.24,0
15.64,-0.89,-2.11,0
15.66,-1.01,-1.99,0
15.68,-1.01,-1.99,0
15.7,-0.77,-1.99,0
15.721,-0.4,-1.99,0
15.74,-0.4,-1.99,0
15.76,-0.77,-1.87,0
15.76,-0.77,-1.75,0
15.781,-0.53,-1.75,0
15.8,-0.28,-1.63,0
15.821,-0.28,-1.63,0
15.841,-0.4,-1.75,0
15.869,-1.63,-2.85,0
15.88,-3.95,-4.8,0
15.901,-5.66,-6.76,0
15.92,-7.86,-9.08,0
15.94,-9.45,-10.06,0
15.96,-10.18,-10.54,0
15.981,-10.54,-10.79,0
16.0,-10.91,-10.91,0
16.02,-11.03,-11.03,0
16.04,-11.16,-11.16,0
16.06,-11.16,-11.16,0
16.08,-11.16,-11.16,0
16.103,-11.4,-11.16,0
16.121,-11.28,-11.16,0
16.14,-11.28,-11.28,0
16.161,-11.28,-11.28,0
16.187,-11.4,-11.28,0
16.202,-11.4,-11.28,0
16.221,-11.4,-11.28,0
16.242,-11.4,-11.28,0
16.261,-11.4,-11.28,0
16.282,-11.4,-11.28,0
16.301,-11.4,-11.28,1
16.321,-11.4,-11.4,1
16.342,-11.4,-11.28,1
16.361,-11.4,-11.28,1
16.381,-11.4,-11.4,1
16.401,-11.4,-11.28,1
16.421,-11.4,-11.28,1
16.442,-10.91,-10.79,1
16.464,-10.3,-10.18,1
16.482,-9.08,-8.83,1
16.502,-7.37,-7.37,1
16.521,-5.9,-6.15,1
16.541,-4.8,-5.41,1
16.566,-4.19,-4.68,1
16.566,-3.58,-4.31,1
16.586,-3.09,-3.82,1
16.606,-2.6,-3.58,0
16.626,-2.24,-3.34,0
16.646,-2.11,-3.09,0
16.667,-1.87,-2.72,0
16.687,-1.26,-2.6,0
16.707,-1.26,-2.48,0
16.726,-1.14,-2.36,0
16.753,-1.14,-2.36,0
16.766,-1.01,-2.24,0
16.787,-0.89,-2.11,0
16.806,-0.65,-1.99,0
16.826,-0.77,-1.87,0
16.848,-0.77,-1.87,0
16.868,-0.53,-1.87,0
16.886,-0.4,-1.75,0
16.906,-0.53,-1.75,0
16.927,-0.65,-1.75,0
16.954,-0.65,-1.63,0
16.966,-0.4,-1.63,0
16.987,-0.28,-1.63,0
17.006,-0.4,-1.5,0
17.036,-1.5,-2.72,0
17.047,-3.58,-4.56,0
17.067,-5.29,-5.9,0
17.087,-7.12,-7.73,0
17.107,-9.2,-9.57,0
17.127,-10.06,-10.3,0
17.153,-10.54,-10.67,0
17.167,-10.91,-10.91,0
17.186,-11.03,-11.03,0
17.207,-11.16,-11.03,0
17.227,-11.16,-11.16,0
17.247,-11.28,-11.16,0
17.266,-11.28,-11.28,0
17.287,-11.28,-11.28,0
17.307,-11.28,-11.28,0
17.327,-11.4,-11.28,0
17.346,-11.4,-11.28,0
17.367,-11.28,-11.4,0
17.387,-11.28,-11.28,0
17.407,-11.4,-11.28,0
17.427,-11.4,-11.28,0
17.447,-11.4,-11.4,0
17.467,-11.4,-11.4,1
17.487,-11.4,-11.4,1
17.507,-11.4,-11.4,1
17.527,-11.4,-11.4,1
17.547,-11.4,-11.4,1
17.567,-11.4,-11.4,1
17.587,-11.4,-11.4,1
17.607,-11.16,-10.91,1
17.627,-10.42,-10.06,1
17.647,-9.32,-8.59,1
17.667,-7.49,-6.88,1
17.687,-6.15,-5.9,1
17.707,-4.92,-5.17,1
17.727,-4.31,-4.56,1
17.747,-3.7,-4.07,1
17.767,-3.09,-3.82,0
17.788,-2.6,-3.46,0
17.807,-2.36,-3.21,0
17.828,-2.36,-2.97,0
17.847,-1.87,-2.6,0
17.867,-1.38,-2.48,0
17.887,-1.14,-2.36,0
17.907,-1.26,-2.24,0
17.927,-1.14,-2.24,0
17.948,-1.01,-2.11,0
17.967,-0.77,-1.99,0
17.987,-0.77,-1.99,0
18.007,-0.89,-1.87,0
18.027,-0.65,-1.75,0
18.048,-0.53,-1.87,0
18.067,-0.4,-1.87,0
18.087,-0.4,-1.75,0
18.107,-0.53,-1.75,0
18.127,-0.4,-1.63,0
18.148,-0.28,-1.5,0
18.167,-0.16,-1.5,0
18.187,-0.16,-1.63,0
18.209,-1.01,-2.36,0
18.228,-3.09,-4.31,0
18.248,-4.92,-6.15,0
18.268,-6.76,-8.83,0
18.288,-9.08,-9.93,0
18.308,-9.93,-10.42,0
18.332,-10.42,-10.79,0
18.348,-10.79,-10.91,0
18.368,-11.03,-11.03,0
18.388,-11.16,-11.16,0
18.408,-11.16,-11.16,0
18.428,-11.28,-11.28,0
18.447,-11.4,-11.28,0
18.468,-11.28,-11.28,0
18.488,-11.28,-11.28,0
18.508,-11.28,-11.28,0
18.528,-11.4,-11.28,0
18.547,-11.4,-11.4,0
18.568,-11.4,-11.28,0
18.588,-11.4,-11.4,0
18.609,-11.4,-11.4,0
18.628,-11.4,-11.4,0
18.648,-11.4,-11.28,1
18.668,-11.4,-11.4,1
18.688,-11.4,-11.4,1
18.708,-11.4,-11.4,1
18.729,-11.4,-11.4,1
18.749,-11.4,-11.4,1
18.769,-11.52,-11.4,1
18.789,-11.28,-11.03,1
18.808,-10.54,-10.42,1
18.828,-9.69,-9.08,1
18.849,-7.98,-7.61,1
18.869,-6.27,-6.27,1
18.889,-5.17,-5.41,1
18.908,-4.44,-4.8,1
18.929,-3.95,-4.31,1
18.948,-3.21,-3.82,1
18.969,-2.6,-3.58,0
18.99,-2.24,-3.34,0
19.009,-2.36,-2.97,0
19.029,-1.99,-2.85,0
19.049,-1.5,-2.6,0
19.069,-1.14,-2.36,0
19.089,-1.14,-2.36,0
19.109,-1.38,-2.36,0
19.129,-1.14,-2.11,0
19.149,-0.77,-2.11,0
19.169,-0.77,-1.99,0
19.189,-0.89,-1.87,0
19.209,-0.77,-1.99,0
19.229,-0.65,-1.87,0
19.249,-0.4,-1.87,0
19.269,-0.4,-1.87,0
19.289,-0.89,-1.75,0
19.31,-0.53,-1.63,0
19.329,-0.4,-1.63,0
19.35,-0.16,-1.5,0
19.369,-0.28,-1.5,0
19.369,-0.77,-1.99,0
19.389,-2.85,-3.95,0
19.41,-4.8,-5.66,0
19.43,-6.39,-8.35,0
19.449,-8.71,-9.81,0
19.469,-9.93,-10.42,0
19.489,-10.42,-10.67,0
19.509,-10.79,-10.91,0
19.529,-10.91,-11.03,0
19.549,-11.16,-11.03,0
19.569,-11.16,-11.16,0
19.59,-11.28,-11.16,0
19.609,-11.28,-11.28,0
19.629,-11.28,-11.16,0
19.649,-11.28,-11.28,0
19.67,-11.28,-11.28,0
19.69,-11.4,-11.28,0
19.71,-11.4,-11.28,0
19.73,-11.28,-11.28,0
19.749,-11.4,-11.28,0
19.77,-11.4,-11.4,0
19.79,-11.4,-11.4,0
19.811,-11.4,-11.4,1
19.83,-11.4,-11.4,1
19.85,-11.4,-11.4,1
19.87,-11.4,-11.4,1
19.89,-11.4,-11.4,1
19.91,-11.4,-11.4,1
19.93,-11.4,-11.4,1
19.95,-11.28,-11.16,1
19.97,-10.79,-10.54,1
19.99,-10.18,-9.81,1
20.01,-9.45,-8.47,1
20.031,-7.73,-7.0,1
20.05,-6.27,-5.9,1
20.07,-5.05,-5.17,1
20.09,-4.19,-4.56,1
20.11,-3.82,-4.07,1
20.13,-3.34,-3.7,1
20.15,-2.6,-3.46,0
20.17,-2.24,-3.21,0
20.17,-2.11,-2.85,0
20.191,-1.99,-2.72,0
20.211,-1.5,-2.48,0
20.231,-1.14,-2.36,0
20.251,-1.01,-2.24,0
20.271,-1.38,-2.24,0
20.291,-1.14,-2.11,0
20.311,-0.77,-1.99,0
20.331,-0.65,-1.87,0
20.351,-0.65,-1.75,0
20.371,-0.77,-1.87,0
20.391,-0.65,-1.75,0
20.411,-0.28,-1.75,0
20.431,-0.28,-1.75,0
20.451,-0.53,-1.63,0
20.471,-0.53,-1.5,0
20.491,-0.28,-1.38,0
20.511,-0.04,-1.38,0
20.531,-0.16,-1.63,0
20.551,-2.24,-3.46,0
20.571,-4.19,-5.17,0
20.591,-6.02,-7.86,0
20.611,-8.35,-9.57,0
20.632,-9.69,-10.3,0
20.651,-10.3,-10.67,0
20.672,-10.79,-10.79,0
20.692,-10.91,-11.03,0
20.711,-11.03,-11.16,0
20.731,-11.16,-11.16,0
20.751,-11.28,-11.28,0
20.771,-11.28,-11.28,0
20.792,-11.28,-11.28,0
20.811,-11.28,-11.28,0
20.831,-11.28,-11.4,0
20.852,-11.4,-11.4,0
20.872,-11.4,-11.28,0
20.892,-11.4,-11.4,0
20.912,-11.4,-11.4,0
20.931,-11.4,-11.4,0
20.951,-11.4,-11.4,1
20.972,-11.4,-11.4,1
20.992,-11.4,-11.4,1
21.012,-11.52,-11.4,1
21.032,-11.4,-11.4,1
21.052,-11.4,-11.4,1
21.073,-11.4,-11.4,1
21.092,-11.52,-11.4,1
21.113,-11.28,-11.16,1
21.132,-10.79,-10.67,1
21.152,-10.06,-10.06,1
21.173,-8.47,-8.59,1
21.192,-7.0,-7.25,1
21.213,-5.54,-6.27,1
21.232,-4.44,-5.41,1
21.252,-3.82,-4.68,1
21.272,-3.58,-4.19,1
21.293,-3.09,-3.82,1
21.313,-2.48,-3.46,1
21.332,-1.99,-3.21,0
21.352,-1.87,-2.97,0
21.372,-1.87,-2.72,0
21.392,-1.5,-2.48,0
21.413,-1.01,-2.36,0
21.433,-1.01,-2.11,0
21.453,-1.14,-2.11,0
21.473,-1.14,-2.11,0
21.493,-0.89,-1.87,0
21.513,-0.53,-1.99,0
21.533,-0.53,-1.87,0
21.553,-0.89,-1.63,0
21.573,-0.65,-1.75,0
21.593,-0.4,-1.75,0
21.613,-0.4,-1.75,0
21.632,-0.4,-1.75,0
21.653,-0.65,-1.63,0
21.673,-0.4,-1.5,0
21.692,-0.04,-1.5,0
21.712,-0.16,-1.5,0
21.733,-2.11,-3.46,0
21.752,-4.19,-5.17,0
21.772,-5.78,-7.61,0
21.792,-8.22,-9.45,0
21.813,-9.57,-10.18,0
21.833,-10.3,-10.67,0
21.853,-10.79,-10.79,0
21.872,-10.91,-11.03,0
21.892,-11.03,-11.16,0
21.913,-11.16,-11.16,0
21.933,-11.28,-11.16,0
21.953,-11.28,-11.28,0
21.973,-11.28,-11.28,0
21.993,-11.28,-11.28,0
22.012,-11.4,-11.28,0
22.033,-11.4,-11.28,0
22.053,-11.28,-11.28,0
22.073,-11.28,-11.4,0
22.093,-11.4,-11.28,0
22.113,-11.4,-11.28,0
22.132,-11.4,-11.4,1
22.153,-11.28,-11.4,1
22.172,-11.4,-11.4,1
22.192,-11.4,-11.4,1
22.213,-11.4,-11.4,1
22.232,-11.4,-11.4,1
22.253,-11.4,-11.4,1
22.273,-11.52,-11.4,1
22.293,-11.4,-11.28,1
22.313,-10.91,-10.79,1
22.333,-10.3,-9.93,1
22.353,-9.2,-8.22,1
22.373,-7.37,-6.88,1
22.393,-6.02,-5.9,1
22.413,-4.8,-5.17,1
22.433,-4.07,-4.56,1
22.453,-3.46,-4.19,1
22.473,-3.34,-3.7,1
22.493,-2.72,-3.46,1
22.512,-2.11,-3.21,0
22.533,-1.87,-2.85,0
22.553,-1.87,-2.72,0
22.573,-1.75,-2.48,0
22.594,-1.26,-2.36,0
22.614,-0.89,-2.24,0
22.634,-0.89,-2.11,0
22.654,-1.14,-1.99,0
22.674,-0.89,-2.11,0
22.694,-0.65,-1.99,0
22.714,-0.53,-1.87,0
22.734,-0.4,-1.87,0
22.753,-0.77,-1.75,0
22.774,-0.53,-1.75,0
22.793,-0.16,-1.87,0
22.814,-0.28,-1.87,0
22.833,-0.65,-1.63,0
22.854,-0.4,-1.63,0
22.873,-0.16,-1.5,0
22.893,-0.16,-1.38,0
22.914,-1.75,-3.09,0
22.934,-3.7,-4.8,0
22.954,-5.29,-7.12,0
22.974,-6.76,-9.2,0
22.974,-8.96,-10.06,0
22.994,-9.93,-10.54,0
23.015,-10.54,-10.79,0
23.034,-10.91,-11.03,0
23.055,-10.91,-11.03,0
23.074,-11.16,-11.16,0
23.095,-11.28,-11.16,0
23.115,-11.28,-11.16,0
23.134,-11.28,-11.16,0
23.155,-11.28,-11.28,0
23.175,-11.28,-11.28,0
23.194,-11.4,-11.28,0
23.215,-11.4,-11.4,0
23.235,-11.4,-11.28,0
23.254,-11.4,-11.28,0
23.274,-11.4,-11.28,0
23.294,-11.4,-11.4,1
23.314,-11.4,-11.4,1
23.334,-11.4,-11.4,1
23.354,-11.4,-11.4,1
23.375,-11.4,-11.4,1
23.375,-11.4,-11.4,1
23.396,-11.52,-11.4,1
23.415,-11.52,-11.4,1
23.436,-11.4,-11.4,1
23.456,-11.03,-10.91,1
23.475,-10.42,-10.06,1
23.495,-9.69,-8.35,1
23.515,-8.35,-6.76,1
23.535,-6.76,-5.9,1
23.555,-5.54,-5.29,1
23.576,-4.56,-4.56,1
23.595,-3.82,-4.19,1
23.615,-3.58,-3.7,1
23.635,-3.21,-3.34,1
23.656,-2.48,-3.21,0
23.675,-1.99,-2.97,0
23.695,-1.75,-2.72,0
23.716,-1.87,-2.6,0
23.735,-1.5,-2.36,0
23.755,-1.14,-2.11,0
23.775,-0.89,-2.11,0
23.775,-1.14,-1.99,0
23.795,-1.14,-1.87,0
23.815,-0.89,-1.99,0
23.836,-0.53,-1.75,0
23.855,-0.53,-1.63,0
23.875,-0.77,-1.63,0
23.895,-0.65,-1.63,0
23.915,-0.53,-1.63,0
23.935,-0.28,-1.75,0
23.956,-0.4,-1.63,0
23.975,-0.65,-1.38,0
23.996,-0.28,-1.38,0
24.015,-0.04,-1.38,0
24.035,-1.38,-2.6,0
24.055,-3.46,-4.56,0
24.075,-5.17,-6.63,0
24.095,-7.49,-8.96,0
24.115,-9.2,-9.93,0
24.135,-10.18,-10.42,0
24.155,-10.67,-10.67,0
24.175,-10.79,-11.03,0
24.195,-11.03,-11.16,0
24.216,-11.16,-11.16,0
24.236,-11.28,-11.16,0
24.255,-11.28,-11.28,0
24.275,-11.28,-11.28,0
24.296,-11.28,-11.28,0
24.315,-11.4,-11.28,0
24.336,-11.4,-11.4,0
24.355,-11.4,-11.4,0
24.375,-11.4,-11.4,0
24.396,-11.4,-11.4,0
24.416,-11.4,-11.4,0
24.436,-11.28,-11.4,1
24.456,-11.4,-11.4,1
24.476,-11.4,-11.4,1
24.495,-11.4,-11.4,1
24.515,-11.4,-11.4,1
24.536,-11.4,-11.4,1
24.556,-11.52,-11.4,1
24.575,-11.52,-11.4,1
24.575,-11.4,-11.4,1
24.595,-11.03,-10.91,1
24.616,-10.42,-10.3,1
24.635,-9.45,-8.83,1
24.655,-7.61,-7.25,1
24.676,-6.15,-6.15,1
24.696,-5.05,-5.54,1
24.716,-4.19,-4.8,1
24.736,-3.58,-4.31,1
24.756,-3.09,-3.82,1
24.775,-2.97,-3.58,1
24.796,-2.24,-3.21,1
24.816,-1.99,-3.09,0
24.835,-1.63,-2.85,0
24.856,-1.75,-2.6,0
24.876,-1.63,-2.36,0
24.896,-0.89,-2.24,0
24.916,-0.89,-2.11,0
24.936,-1.01,-1.99,0
24.956,-1.01,-1.99,0
24.976,-0.65,-1.99,0
24.976,-0.53,-1.87,0
24.996,-0.4,-1.75,0
25.017,-0.65,-1.75,0
25.036,-0.77,-1.63,0
25.057,-0.28,-1.75,0
25.077,-0.28,-1.75,0
25.096,-0.4,-1.63,0
25.117,-0.53,-1.63,0
25.137,-0.16,-1.5,0
25.157,-0.16,-1.38,0
25.177,-1.14,-2.48,0
25.204,-3.21,-4.44,0
25.216,-4.92,-6.27,0
25.237,-7.12,-8.71,0
25.257,-9.08,-9.93,0
25.277,-10.06,-10.42,0
25.296,-10.67,-10.79,0
25.316,-10.91,-10.91,0
25.337,-11.03,-11.03,0
25.357,-11.03,-11.16,0
25.377,-11.28,-11.28,0
25.403,-11.28,-11.28,0
25.417,-11.28,-11.28,0
25.438,-11.28,-11.28,0
25.458,-11.4,-11.28,0
25.487,-11.4,-11.4,0
25.498,-11.4,-11.28,0
25.52,-11.4,-11.4,0
25.538,-11.4,-11.28,0
25.558,-11.4,-11.4,0
25.577,-11.4,-11.4,1
25.597,-11.4,-11.4,1
25.618,-11.4,-11.4,1
25.637,-11.4,-11.4,1
25.658,-11.4,-11.4,1
25.678,-11.4,-11.4,1
25.697,-11.52,-11.4,1
25.717,-11.4,-11.52,1
25.738,-11.52,-11.4,1
25.757,-11.16,-11.03,1
25.786,-10.54,-10.42,1
25.807,-9.69,-9.08,1
25.827,-7.86,-7.49,1
25.853,-6.39,-6.27,1
25.867,-5.17,-5.54,1
25.887,-4.31,-4.92,1
25.907,-3.7,-4.31,1
25.927,-3.09,-3.95,1
25.953,-3.09,-3.58,1
25.967,-2.6,-3.34,1
25.987,-1.99,-3.09,0
26.007,-1.75,-2.97,0
26.027,-1.87,-2.6,0
26.053,-1.75,-2.48,0
26.067,-1.01,-2.36,0
26.087,-0.89,-2.11,0
26.107,-0.89,-2.11,0
26.131,-1.14,-1.99,0
26.147,-0.89,-1.87,0
26.166,-0.53,-1.99,0
26.187,-0.53,-1.87,0
26.187,-0.65,-1.75,0
26.207,-0.77,-1.75,0
26.227,-0.4,-1.63,0
26.248,-0.28,-1.63,0
26.267,-0.28,-1.75,0
26.288,-0.53,-1.63,0
26.307,-0.53,-1.5,0
26.328,0.09,-1.38,0
26.347,-0.65,-1.99,0
26.37,-2.85,-3.95,0
26.387,-4.68,-5.66,0
26.407,-6.51,-8.35,0
26.427,-8.59,-9.69,0
26.447,-9.93,-10.3,0
26.47,-10.54,-10.67,0
26.487,-10.79,-10.91,0
26.507,-10.91,-11.03,0
26.532,-11.03,-11.03,0
26.547,-11.28,-11.16,0
26.567,-11.28,-11.16,0
26.588,-11.28,-11.28,0
26.589,-11.16,-11.28,0
26.609,-11.28,-11.28,0
26.63,-11.4,-11.28,0
26.65,-11.4,-11.28,0
26.669,-11.4,-11.28,0
26.689,-11.4,-11.4,0
26.709,-11.4,-11.4,0
26.729,-11.4,-11.4,1
26.749,-11.4,-11.4,1
26.769,-11.4,-11.4,1
26.789,-11.52,-11.4,1
26.809,-11.4,-11.4,1
26.829,-11.4,-11.4,1
26.849,-11.4,-11.4,1
26.869,-11.52,-11.4,1
26.889,-11.52,-11.4,1
26.909,-11.28,-11.16,1
26.93,-10.67,-10.54,1
26.95,-9.93,-9.81,1
26.969,-8.83,-8.47,1
26.989,-7.0,-7.0,1
26.989,-5.66,-6.02,1
27.01,-4.68,-5.29,1
27.029,-4.07,-4.68,1
27.052,-3.34,-4.19,1
27.071,-3.21,-3.82,1
27.09,-2.97,-3.46,1
27.11,-2.11,-3.21,1
27.133,-1.87,-2.97,0
27.15,-1.75,-2.72,0
27.17,-1.75,-2.6,0
27.19,-1.14,-2.48,0
27.21,-0.89,-2.24,0
27.229,-0.77,-2.11,0
27.25,-0.89,-2.11,0
27.27,-1.14,-1.99,0
27.29,-0.53,-1.99,0
27.31,-0.53,-1.87,0
27.33,-0.53,-1.75,0
27.35,-0.65,-1.75,0
27.37,-0.53,-1.63,0
27.39,-0.4,-1.63,0
27.39,-0.28,-1.75,0
27.411,-0.4,-1.63,0
27.43,-0.65,-1.5,0
27.451,-0.04,-1.5,0
27.471,-0.4,-1.63,0
27.491,-2.48,-3.58,0
27.51,-4.44,-5.17,0
27.531,-6.02,-6.88,0
27.551,-8.35,-8.96,0
27.57,-9.81,-9.93,0
27.591,-10.42,-10.54,0
27.611,-10.79,-10.79,0
27.63,-10.91,-10.91,0
27.65,-11.03,-11.03,0
27.671,-11.28,-11.16,0
27.69,-11.28,-11.16,0
27.71,-11.28,-11.16,0
27.731,-11.28,-11.28,0
27.751,-11.4,-11.28,0
27.77,-11.4,-11.28,0
27.79,-11.4,-11.28,0
27.811,-11.4,-11.4,0
27.831,-11.4,-11.4,0
27.85,-11.4,-11.28,0
27.871,-11.4,-11.28,1
27.891,-11.4,-11.4,1
27.911,-11.4,-11.4,1
27.931,-11.4,-11.4,1
27.951,-11.52,-11.4,1
27.971,-11.4,-11.4,1
27.995,-11.4,-11.4,1
28.019,-11.52,-11.4,1
28.044,-11.52,-11.4,1
28.065,,,
28.072,-11.4,-11.28,1
28.091,-10.91,-10.79,1
28.114,-10.3,-9.57,1
28.138,-9.08,-7.86,1
28.159,-7.25,-6.51,1
28.179,,,
28.191,-6.02,-5.66,1
28.211,-5.05,-5.05,1
28.231,-4.07,-4.56,1
28.252,-3.46,-4.07,1
28.272,-3.21,-3.7,1
28.291,-3.09,-3.34,1
28.311,,,
28.331,-2.36,-3.09,1
28.351,-1.87,-2.85,0
28.371,-1.63,-2.72,0
28.391,-1.75,-2.6,0
28.411,-1.63,-2.36,0
28.431,-0.77,-2.24,0
28.451,-0.77,-2.11,0
28.472,-0.89,-1.99,0
28.491,-1.14,-1.99,0
28.512,-0.89,-1.99,0
28.532,-0.53,-1.75,0
28.552,-0.4,-1.75,0
28.573,,,
28.591,-0.4,-1.75,0
28.611,-0.89,-1.63,0
28.631,-0.16,-1.63,0
28.651,-0.16,-1.75,0
28.672,-0.4,-1.63,0
28.691,-0.4,-1.63,0
28.712,-0.4,-1.5,0
28.731,-0.04,-1.38,0
28.752,-1.87,-3.21,0
28.773,-3.95,-4.92,0
28.794,-5.54,-6.88,0
28.814,-7.98,-9.08,0
28.839,-9.57,-10.06,0
28.859,-10.3,-10.54,0
28.884,-10.67,-10.79,0
28.908,-10.79,-11.03,0
28.933,-11.03,-11.03,0
28.957,-11.16,-11.16,0
28.978,,,
28.978,,,
28.992,-11.28,-11.16,0
29.003,-11.28,-11.16,0
29.027,-11.28,-11.28,0
29.052,-11.28,-11.28,0
29.077,-11.4,-11.28,0
29.101,-11.4,-11.28,0
29.121,,,
29.124,,,
29.143,-11.28,-11.28,0
29.164,-11.4,-11.28,0
29.184,-11.52,-11.4,0
29.204,-11.4,-11.4,1
29.224,-11.4,-11.4,1
29.245,-11.4,-11.4,1
29.265,-11.64,-11.4,1
29.289,,,
29.305,-11.4,-11.4,1
29.324,-11.4,-11.4,1
29.344,-11.52,-11.4,1
29.367,-11.52,-11.4,1
29.388,-11.52,-11.4,1
29.409,-11.4,-11.28,1
29.437,-10.91,-10.79,1
29.457,,,
29.47,-10.3,-9.81,1
29.489,-9.08,-8.1,1
29.512,-7.25,-6.76,1
29.532,-5.78,-5.9,1
29.549,-5.05,-5.17,1
29.57,,,
29.589,-4.07,-4.56,1
29.61,-3.46,-4.19,1
29.63,-3.09,-3.7,1
29.649,-2.85,-3.46,1
29.67,-2.48,-3.09,1
29.689,-1.87,-2.85,0
29.709,-1.63,-2.85,0
29.73,-1.5,-2.6,0
29.749,-1.63,-2.36,0
29.77,-0.89,-2.24,0
29.789,-0.77,-2.11,0
29.81,-0.89,-1.99,0
29.829,,,
29.85,-0.89,-2.11,0
29.87,-0.89,-1.99,0
29.89,-0.53,-1.75,0
29.91,-0.28,-1.75,0
29.93,-0.4,-1.63,0
29.951,-0.65,-1.63,0
29.97,-0.4,-1.75,0
29.99,-0.28,-1.75,0
30.013,-0.4,-1.63,0
30.03,,,
30.05,-0.4,-1.63,0
30.07,-0.53,-1.5,0
30.09,-0.04,-1.38,0
30.11,-1.63,-2.97,0
30.13,-3.7,-4.8,0
30.15,-5.29,-6.88,0
30.169,-7.61,-9.08,0
30.19,-9.45,-10.06,0
30.216,-10.3,-10.54,0
30.232,-10.67,-10.79,0
30.253,-10.91,-10.91,0
30.275,-11.03,-11.03,0
30.299,-11.16,-11.16,0
30.326,-11.28,-11.28,0
30.346,-11.28,-11.28,0
30.37,,,
30.372,,,
30.392,-11.28,-11.28,0
30.412,-11.4,-11.28,0
30.432,-11.4,-11.28,0
30.452,-11.4,-11.28,0
30.472,-11.4,-11.28,0
30.492,-11.4,-11.4,0
30.512,,,
30.533,-11.4,-11.4,0
30.552,-11.4,-11.28,1
30.572,-11.4,-11.4,1
30.592,-11.4,-11.4,1
30.613,-11.4,-11.4,1
30.637,-11.4,-11.4,1
30.661,-11.4,-11.4,1
30.682,,,
30.697,-11.52,-11.4,1
30.718,-11.52,-11.4,1
30.737,-11.52,-11.4,1
30.757,-11.4,-11.4,1
30.785,-11.03,-10.91,1
30.805,-10.42,-10.3,1
30.826,,,
30.837,-9.32,-9.57,1
30.857,-7.37,-8.35,1
30.882,-6.02,-7.0,1
30.903,-5.17,-6.02,1
30.92,-4.19,-5.29,1
30.938,-3.58,-4.68,1
30.961,-3.09,-4.31,1
30.981,-2.85,-3.82,1
31.001,-2.6,-3.46,1
31.025,-1.87,-3.21,1
31.045,-1.63,-2.97,0
31.067,-1.5,-2.72,0
31.092,-1.63,-2.6,0
31.112,-1.14,-2.36,0
31.131,-0.77,-2.24,0
31.157,-0.77,-2.11,0
31.178,-0.89,-1.99,0
31.198,,,
31.206,-1.01,-1.99,0
31.226,-0.53,-1.99,0
31.245,-0.4,-1.87,0
31.265,,,
31.286,-0.4,-1.75,0
31.305,-0.53,-1.63,0
31.326,-0.53,-1.63,0
31.346,-0.28,-1.63,0
31.366,-0.28,-1.63,0
31.385,-0.28,-1.63,0
31.406,-0.28,-1.5,0
31.426,0.09,-1.5,0
31.446,-1.14,-2.6,0
31.466,-3.34,-4.31,0
31.487,-4.92,-6.39,0
31.506,-7.12,-8.71,0
31.527,-9.08,-9.81,0
31.546,,,
31.567,-10.18,-10.42,0
31.586,-10.54,-10.79,0
31.606,-10.79,-10.91,0
31.627,-10.91,-11.03,0
31.646,-11.16,-11.16,0
31.669,-11.28,-11.16,0
31.694,-11.28,-11.16,0
31.714,,,
31.727,-11.28,-11.28,0
31.747,-11.28,-11.28,0
31.767,-11.4,-11.28,0
31.787,-11.4,-11.4,0
31.813,-11.4,-11.28,0
31.837,-11.4,-11.28,0
31.858,,,
31.879,-11.4,-11.4,1
31.899,-11.4,-11.28,1
31.919,-11.4,-11.4,1
31.939,-11.4,-11.4,1
31.958,-11.4,-11.4,1
31.981,-11.4,-11.4,1
32.004,-11.4,-11.4,1
32.026,,,
32.038,-11.4,-11.4,1
32.058,-11.52,-11.4,1
32.078,-11.52,-11.4,1
32.099,-11.4,-11.4,1
32.124,-11.16,-10.91,1
32.148,-10.42,-10.3,1
32.173,-9.57,-8.59,1
32.193,-7.73,-7.25,1
32.214,-6.15,-6.15,1
32.238,-5.29,-5.29,1
32.259,-4.31,-4.8,1
32.28,-3.58,-4.44,1
32.304,-3.21,-3.82,1
32.325,-2.85,-3.58,1
32.345,-2.72,-3.34,1
32.369,-1.99,-3.09,1
32.39,-1.75,-2.85,1
32.41,,,
32.42,-1.63,-2.85,0
32.44,-1.63,-2.6,0
32.46,-1.38,-2.48,0
32.48,,,
32.5,-0.89,-2.24,0
32.52,-1.01,-2.11,0
32.54,-0.89,-2.11,0
32.56,-1.14,-1.99,0
32.58,-0.89,-1.99,0
32.6,-0.53,-1.99,0
32.62,-0.65,-1.87,0
32.64,-0.89,-1.75,0
32.661,-0.77,-1.87,0
32.681,-0.53,-1.75,0
32.701,-0.53,-1.75,0
32.722,-0.53,-1.87,0
32.741,,,
32.761,-0.53,-1.75,0
32.781,-0.4,-1.63,0
32.801,-1.14,-2.48,0
32.822,-3.21,-4.31,0
32.842,-4.68,-5.66,0
32.862,-5.9,-7.0,0
32.881,-6.63,-8.96,0
32.901,-7.37,-10.06,0
32.922,-9.32,-10.54,0
32.942,-10.3,-10.79,0
32.963,-10.67,-11.03,0
32.987,-10.91,-11.03,0
33.009,,,
33.022,-10.91,-11.16,0
33.042,-11.16,-11.16,0
33.062,-11.28,-11.16,0
33.083,-11.28,-11.28,0
33.107,-11.28,-11.28,0
33.131,-11.4,-11.28,0
33.156,-11.4,-11.28,0
33.176,,,
33.182,-11.28,-11.28,0
33.203,,,
33.222,-11.28,-11.28,0
33.242,-11.4,-11.28,1
33.263,-11.4,-11.4,1
33.282,-11.4,-11.4,1
33.302,-11.4,-11.4,1
33.323,,,
33.342,-11.4,-11.4,1
33.362,-11.4,-11.4,1
33.382,-11.4,-11.4,1
33.402,-11.4,-11.4,1
33.423,-11.4,-11.4,1
33.442,-11.4,-11.4,1
33.468,-11.16,-11.03,1
33.488,,,
33.508,-10.54,-10.42,1
33.528,-9.69,-9.2,1
33.548,-8.1,-7.49,1
33.569,-6.51,-6.39,1
33.588,-5.17,-5.54,1
33.609,-4.44,-5.05,1
33.628,-3.82,-4.44,1
33.648,-3.46,-4.07,1
33.668,-2.85,-3.58,1
33.689,-2.24,-3.34,1
33.709,,,
33.728,-2.11,-3.09,1
33.749,-1.87,-2.97,0
33.768,-1.75,-2.85,0
33.788,-1.26,-2.6,0
33.808,-1.01,-2.36,0
33.828,-1.14,-2.24,0
33.848,-1.14,-2.11,0
33.868,-0.89,-2.11,0
33.885,-0.53,-2.11,0
33.905,,,
33.925,-0.65,-1.99,0
33.945,-0.65,-1.87,0
33.965,-0.77,-1.87,0
33.985,-0.53,-1.75,0
34.005,-0.16,-1.75,0
34.025,-0.28,-1.75,0
34.045,-0.28,-1.63,0
34.065,-0.28,-1.75,0
34.085,-0.16,-1.63,0
34.105,,,
34.125,-0.28,-1.5,0
34.145,-0.4,-1.99,0
34.165,-2.6,-3.7,0
34.185,-4.56,-5.29,0
34.205,-6.27,-7.37,0
34.225,-8.59,-9.32,0
34.245,-9.69,-10.18,0
34.265,-10.54,-10.54,0
34.285,-10.91,-10.79,0
34.307,-11.03,-11.03,0
34.331,-11.03,-11.03,0
34.352,,,
34.367,-11.16,-11.16,0
34.387,-11.28,-11.16,0
34.407,-11.28,-11.16,0
34.427,-11.28,-11.28,0
34.45,-11.28,-11.28,0
34.475,-11.4,-11.28,0
34.499,-11.4,-11.28,0
34.519,,,
34.528,-11.4,-11.28,0
34.547,,,
34.567,-11.4,-11.4,0
34.587,-11.52,-11.4,0
34.607,-11.4,-11.4,1
34.628,-11.4,-11.4,1
34.648,-11.4,-11.4,1
34.667,-11.4,-11.4,1
34.688,,,
34.708,-11.52,-11.4,1
34.728,-11.52,-11.4,1
34.748,-11.4,-11.4,1
34.769,-11.4,-11.4,1
34.788,-11.52,-11.4,1
34.811,-11.4,-11.16,1
34.831,,,
34.848,-10.79,-10.67,1
34.869,-10.06,-9.45,1
34.889,-8.71,-7.73,1
34.909,-7.12,-6.51,1
34.928,-5.66,-5.66,1
34.948,-4.56,-5.05,1
34.968,,,
34.989,-3.95,-4.56,1
35.008,-3.46,-3.95,1
35.028,-3.09,-3.7,1
35.049,-2.36,-3.34,1
35.069,-1.99,-2.97,1
35.089,-1.75,-2.85,0
35.109,-1.75,-2.72,0
35.129,-1.38,-2.48,0
35.149,-0.89,-2.24,0
35.17,-0.89,-2.24,0
35.189,-1.01,-1.99,0
35.209,-0.89,-1.99,0
35.229,,,
35.25,-0.65,-1.99,0
35.269,-0.4,-1.87,0
35.289,-0.4,-1.75,0
35.309,-0.53,-1.63,0
35.33,-0.53,-1.5,0
35.349,0.09,-1.5,0
35.369,-0.04,-1.5,0
35.389,-0.04,-1.5,0
35.409,-0.16,-1.38,0
35.429,0.09,-1.38,0
35.449,0.21,-1.38,0
35.469,,,
35.489,-0.04,-1.26,0
