Time (s),Pressure 1 (kPa),Pressure 2 (kPa),Switch State
0.121,-7.49,-7.86,1
0.142,-7.49,-7.86,1
0.162,-7.61,-7.86,1
0.182,-7.61,-7.86,1
0.202,-7.49,-7.86,1
0.222,-7.49,-7.86,1
0.242,-7.49,-7.86,1
0.262,-7.49,-7.86,1
0.282,-7.49,-7.86,1
0.302,-7.61,-7.86,1
0.322,-7.61,-7.86,1
0.342,-7.49,-7.98,1
0.362,-7.61,-7.86,1
0.382,-7.61,-7.86,1
0.401,-7.61,-7.86,1
0.422,-7.61,-7.86,1
0.442,-7.49,-7.86,1
0.462,-7.61,-7.86,1
0.482,-7.49,-7.86,1
0.502,-7.49,-7.86,1
0.522,-7.61,-7.86,1
0.522,-7.61,-7.86,1
0.543,-7.61,-7.86,1
0.563,-7.61,-7.98,1
0.583,-7.49,-7.86,1
0.602,-7.49,-7.86,1
0.623,-7.61,-7.86,1
0.643,-7.61,-7.86,1
0.663,-7.49,-7.86,1
0.683,-7.61,-7.86,1
0.703,-7.49,-7.86,1
0.723,-7.61,-7.86,1
0.743,-7.49,-7.98,1
0.763,-7.49,-7.86,1
0.783,-7.61,-7.86,1
0.803,-7.61,-7.86,1
0.823,-7.61,-7.86,1
0.843,-7.61,-7.86,1
0.863,-7.49,-7.98,1
0.883,-7.61,-7.86,1
0.902,-7.61,-7.86,1
0.923,-7.61,-7.86,1
0.943,-7.49,-7.86,1
0.963,-7.61,-7.86,1
0.983,-7.49,-7.98,1
1.003,-7.61,-7.86,1
1.023,-7.49,-7.86,1
1.043,-7.61,-7.86,1
1.063,-7.49,-7.86,1
1.083,-7.61,-7.86,1
1.103,-7.49,-7.86,1
1.124,-7.61,-7.86,1
1.143,-7.49,-7.86,1
1.163,-7.61,-7.86,1
1.184,-7.61,-7.86,1
1.203,-7.49,-7.86,1
1.223,-7.49,-7.86,1
1.243,-7.61,-7.98,1
1.263,-7.61,-7.86,1
1.283,-7.49,-7.98,1
1.303,-7.61,-7.86,1
1.323,-7.61,-7.86,1
1.323,-7.61,-7.86,1
1.344,-7.61,-7.86,1
1.363,-7.61,-7.86,1
1.386,-7.61,-7.86,1
1.404,-7.61,-7.86,1
1.423,-7.61,-7.98,1
1.443,-7.61,-7.86,1
1.464,-7.61,-7.98,1
1.484,-7.61,-7.86,1
1.503,-7.61,-7.86,1
1.523,-7.49,-7.86,1
1.544,-7.61,-7.86,1
1.563,-7.61,-7.86,1
1.583,-7.49,-7.86,1
1.603,-7.61,-7.86,1
1.623,-7.49,-7.86,1
1.643,-7.49,-7.86,1
1.663,-7.49,-7.86,1
1.684,-7.49,-7.86,1
1.703,-7.61,-7.86,1
1.723,-7.61,-7.86,1
1.724,-7.61,-7.86,1
1.745,-7.49,-7.86,1
1.765,-7.61,-7.98,1
1.785,-7.61,-7.86,1
1.805,-7.61,-7.86,1
1.825,-7.49,-7.86,1
1.845,-7.49,-7.86,1
1.865,-7.49,-7.86,1
1.885,-7.49,-7.98,1
1.905,-7.61,-7.86,1
1.925,-7.49,-7.98,1
1.945,-7.49,-7.86,1
1.965,-7.49,-7.86,1
1.985,-7.61,-7.86,1
2.005,-7.61,-7.86,1
2.025,-7.49,-7.86,1
2.045,-7.61,-7.86,1
2.066,-7.61,-7.86,1
2.085,-7.49,-7.98,1
2.105,-7.49,-7.86,1
2.125,-7.61,-7.86,1
2.125,-7.49,-7.86,1
2.145,-7.49,-7.86,1
2.165,-7.61,-7.86,1
2.185,-7.61,-7.86,1
2.206,-7.61,-7.98,1
2.226,-7.49,-7.86,1
2.246,-7.49,-7.98,1
2.266,-7.61,-7.98,1
2.286,-7.49,-7.86,1
2.306,-7.49,-7.86,1
2.326,-7.61,-7.98,1
2.346,-7.61,-7.86,1
2.365,-7.61,-7.86,1
2.386,-7.61,-7.86,1
2.406,-7.49,-7.98,1
2.426,-7.49,-7.86,1
2.446,-7.61,-7.98,1
2.466,-7.61,-7.86,1
2.486,-7.49,-7.86,1
2.506,-7.49,-7.86,1
2.526,-7.61,-7.86,1
2.546,-7.61,-7.86,1
2.566,-7.49,-7.86,1
2.586,-7.61,-7.86,1
2.606,-7.61,-7.86,1
2.627,-7.61,-7.86,1
2.646,-7.61,-7.86,1
2.666,-7.49,-7.98,1
2.686,-7.61,-7.86,1
2.706,-7.49,-7.98,1
2.726,-7.49,-7.86,1
2.747,-7.61,-7.86,1
2.766,-7.61,-7.86,1
2.786,-7.61,-7.86,1
2.806,-7.61,-7.98,1
2.827,-7.61,-7.86,1
2.846,-7.61,-7.86,1
2.866,-7.49,-7.86,1
2.886,-7.61,-7.86,1
2.906,-7.61,-7.86,1
2.926,-7.61,-7.86,1
2.947,-7.61,-7.86,1
2.967,-7.61,-7.86,1
2.987,-7.49,-7.98,1
3.006,-7.61,-7.86,1
3.027,-7.49,-7.98,1
3.047,-7.61,-7.86,1
3.067,-7.49,-7.86,1
3.087,-7.49,-7.86,1
3.106,-7.49,-7.86,1
3.126,-7.49,-7.86,1
3.146,-7.61,-7.86,1
3.167,-7.61,-7.86,1
3.187,-7.61,-7.86,1
3.207,-7.61,-7.98,1
3.227,-7.61,-7.98,1
3.246,-7.49,-7.86,1
3.267,-7.61,-7.86,1
3.287,-7.61,-7.86,1
3.307,-7.49,-7.86,1
3.327,-7.61,-7.86,1
3.347,-7.49,-7.98,1
3.367,-7.37,-7.86,1
3.387,-7.37,-7.86,1
3.407,-7.37,-7.86,1
3.428,-7.37,-7.98,1
3.447,-7.37,-7.86,1
3.468,-7.49,-7.86,1
3.488,-7.49,-7.86,1
3.507,-7.49,-7.86,1
3.528,-7.49,-7.86,1
3.548,-7.49,-7.86,1
3.568,-7.49,-7.86,1
3.587,-7.49,-7.86,1
3.608,-7.49,-7.86,1
3.627,-7.49,-7.98,1
3.647,-7.61,-7.98,1
3.668,-7.49,-7.98,1
3.688,-7.61,-7.98,1
3.708,-7.49,-7.98,1
3.727,-7.49,-8.47,1
3.748,-7.49,-8.83,1
3.768,-7.61,-8.96,1
3.789,-7.61,-8.83,1
3.808,-7.49,-8.59,1
3.828,-7.49,-8.47,1
3.848,-7.61,-8.22,1
3.868,-7.49,-8.22,1
3.894,-7.49,-8.1,1
3.908,-7.49,-8.1,1
3.928,-7.49,-7.98,1
3.948,-7.49,-7.98,1
3.977,-7.61,-7.98,1
3.988,-7.49,-7.98,1
4.008,-7.61,-7.98,1
4.028,-7.61,-7.98,1
4.048,-7.49,-7.98,1
4.068,-7.61,-7.98,1
4.088,-7.61,-7.86,1
4.108,-7.49,-7.98,1
4.128,-7.49,-7.98,1
4.128,-7.61,-7.98,1
4.148,-7.61,-7.98,1
4.169,-7.49,-7.98,1
4.188,-7.61,-7.98,1
4.209,-7.61,-7.86,1
4.229,-7.61,-7.98,1
4.249,-7.61,-7.98,1
4.268,-7.61,-7.86,1
4.293,-7.61,-7.98,1
4.309,-7.49,-7.98,1
4.329,-7.49,-7.86,1
4.349,-7.61,-7.86,1
4.369,-7.61,-7.98,1
4.389,-7.49,-7.86,1
4.408,-7.61,-7.86,1
4.429,-7.61,-7.86,1
4.449,-7.49,-7.86,1
4.477,-7.49,-7.86,1
4.488,-7.61,-7.86,1
4.509,-7.49,-7.86,1
4.528,-7.61,-7.98,1
4.528,-7.61,-7.98,1
4.548,-7.61,-7.98,1
4.569,-7.61,-7.86,1
4.589,-7.49,-7.98,1
4.609,-7.12,-7.86,1
4.629,-6.15,-7.49,1
4.649,-5.05,-6.39,1
4.669,-4.19,-5.78,1
4.693,-3.46,-4.92,1
4.708,-2.97,-4.31,1
4.729,-2.85,-3.82,1
4.749,-2.36,-3.46,1
4.769,-1.87,-3.21,1
4.788,-1.5,-2.85,1
4.808,-1.5,-2.72,0
4.829,-1.63,-2.6,0
4.849,-1.14,-2.36,0
4.869,-0.77,-2.11,0
4.888,-0.65,-1.99,0
4.908,-0.89,-1.99,0
4.929,-0.89,-1.87,0
4.95,-0.65,-1.87,0
4.97,-0.53,-1.75,0
4.989,-0.4,-1.75,0
5.01,-0.65,-1.63,0
5.029,-0.65,-1.63,0
5.051,-0.4,-1.63,0
5.07,-0.16,-1.63,0
5.09,-0.28,-1.63,0
5.11,-0.77,-1.63,0
5.13,-0.53,-1.5,0
5.149,-0.4,-1.38,0
5.17,-0.16,-1.38,0
5.19,-0.04,-1.38,0
5.21,-0.16,-1.38,0
5.23,-1.26,-2.48,0
5.25,-3.34,-4.19,0
5.27,-5.05,-5.78,0
5.289,-6.76,-8.35,0
5.31,-8.83,-9.69,0
5.33,-9.93,-10.3,0
5.33,-10.3,-10.54,0
5.35,-10.67,-10.79,0
5.37,-10.91,-11.03,0
5.39,-11.03,-11.03,0
5.41,-11.16,-11.16,0
5.43,-11.16,-11.16,0
5.45,-11.28,-11.16,0
5.47,-11.28,-11.28,0
5.49,-11.28,-11.28,0
5.51,-11.28,-11.28,0
5.53,-11.28,-11.28,0
5.551,-11.4,-11.28,0
5.57,-11.4,-11.28,0
5.59,-11.28,-11.4,0
5.611,-11.4,-11.4,0
5.63,-11.4,-11.4,1
5.651,-11.4,-11.4,1
5.671,-11.4,-11.4,1
5.691,-11.4,-11.4,1
5.71,-11.4,-11.4,1
5.73,-11.4,-11.4,1
5.75,-11.4,-11.4,1
5.771,-11.4,-11.4,1
5.791,-11.4,-11.4,1
5.811,-11.28,-11.28,1
5.831,-10.79,-10.67,1
5.85,-10.06,-9.69,1
5.871,-8.59,-8.1,1
5.89,-6.88,-7,1
5.911,-5.54,-5.9,1
5.93,-4.68,-5.17,1
5.951,-4.19,-4.56,1
5.971,-3.58,-4.07,1
5.99,-2.97,-3.7,1
6.01,-2.48,-3.46,1
6.03,-2.24,-3.34,1
6.05,-2.24,-3.09,0
6.071,-1.75,-2.85,0
6.09,-1.38,-2.6,0
6.111,-1.26,-2.36,0
6.13,-1.26,-2.24,0
6.13,-1.26,-2.24,0
6.15,-1.01,-2.11,0
6.171,-0.77,-2.11,0
6.191,-0.77,-1.99,0
6.21,-0.89,-1.99,0
6.23,-0.89,-1.75,0
6.251,-0.77,-1.75,0
6.271,-0.4,-1.63,0
6.291,-0.4,-1.75,0
6.311,-0.77,-1.75,0
6.33,-0.77,-1.75,0
6.351,-0.4,-1.63,0
6.37,-0.16,-1.5,0
6.39,-0.16,-1.38,0
6.411,-0.28,-1.38,0
6.43,-1.26,-2.36,0
6.451,-3.34,-4.19,0
6.471,-4.92,-5.41,0
6.491,-6.76,-6.39,0
6.511,-8.96,-8.22,0
6.531,-9.93,-9.57,0
6.531,-10.42,-10.18,0
6.551,-10.67,-10.67,0
6.571,-11.03,-10.79,0
6.591,-11.03,-11.03,0
6.612,-11.16,-11.03,0
6.631,-11.16,-11.16,0
6.651,-11.28,-11.16,0
6.671,-11.28,-11.28,0
6.691,-11.28,-11.28,0
6.711,-11.28,-11.28,0
6.732,-11.28,-11.28,0
6.751,-11.4,-11.28,0
6.771,-11.4,-11.28,0
6.792,-11.4,-11.28,0
6.812,-11.4,-11.4,0
6.831,-11.4,-11.28,0
6.851,-11.4,-11.4,1
6.871,-11.4,-11.28,1
6.891,-11.4,-11.28,1
6.911,-11.4,-11.4,1
6.931,-11.4,-11.4,1
6.931,-11.4,-11.4,1
6.952,-11.4,-11.4,1
6.972,-11.4,-11.4,1
6.992,-11.28,-11.16,1
7.012,-10.79,-10.67,1
7.031,-10.06,-9.45,1
7.052,-8.71,-7.86,1
7.071,-6.88,-6.63,1
7.092,-5.54,-5.78,1
7.111,-4.68,-5.05,1
7.131,-4.19,-4.44,1
7.152,-3.7,-4.07,1
7.172,-3.09,-3.7,1
7.192,-2.48,-3.46,0
7.211,-2.36,-3.34,0
7.231,-2.36,-3.09,0
7.252,-1.99,-2.85,0
7.272,-1.5,-2.6,0
7.291,-1.38,-2.48,0
7.311,-1.38,-2.36,0
7.332,-1.5,-2.36,0
7.352,-1.26,-2.36,0
7.373,-1.01,-2.24,0
7.393,-0.89,-2.11,0
7.412,-0.89,-1.87,0
7.433,-1.14,-1.87,0
7.453,-0.89,-1.87,0
7.472,-0.65,-1.87,0
7.492,-0.65,-1.99,0
7.512,-0.89,-1.99,0
7.532,-0.89,-1.87,0
7.553,-0.65,-1.75,0
7.572,-0.4,-1.63,0
7.593,-0.28,-1.63,0
7.613,-0.4,-1.75,0
7.632,-1.26,-2.6,0
7.659,-3.21,-4.31,0
7.673,-4.92,-5.9,0
7.693,-6.63,-8.35,0
7.712,-8.71,-9.81,0
7.732,-9.81,-10.3,0
7.753,-10.3,-10.67,0
7.773,-10.67,-10.79,0
7.793,-10.91,-11.03,0
7.813,-11.03,-11.03,0
7.833,-11.03,-11.16,0
7.853,-11.16,-11.28,0
7.877,-11.28,-11.16,0
7.893,-11.28,-11.28,0
7.913,-11.28,-11.28,0
7.933,-11.28,-11.28,0
7.953,-11.28,-11.28,0
7.973,-11.4,-11.28,0
7.993,-11.4,-11.28,0
8.013,-11.4,-11.28,0
8.033,-11.4,-11.4,0
8.053,-11.4,-11.4,0
8.073,-11.4,-11.28,1
8.093,-11.4,-11.4,1
8.113,-11.4,-11.4,1
8.133,-11.4,-11.4,1
8.153,-11.4,-11.4,1
8.174,-11.4,-11.4,1
8.193,-11.4,-11.4,1
8.213,-11.4,-11.4,1
8.233,-11.28,-11.16,1
8.253,-10.79,-10.67,1
8.273,-10.18,-9.57,1
8.293,-9.57,-7.98,1
8.313,-8.83,-6.76,1
8.333,-8.1,-5.78,1
8.353,-6.88,-5.17,1
8.374,-5.54,-4.56,1
8.393,-4.68,-4.07,1
8.413,-3.95,-3.7,1
8.433,-3.34,-3.46,0
8.453,-3.09,-3.21,0
8.477,-2.48,-2.97,0
8.493,-2.11,-2.72,0
8.513,-2.11,-2.48,0
8.533,-1.87,-2.36,0
8.554,-1.5,-2.24,0
8.573,-1.14,-2.24,0
8.593,-1.01,-2.24,0
8.614,-1.26,-2.11,0
8.633,-1.14,-1.99,0
8.655,-0.89,-1.99,0
8.674,-0.77,-1.87,0
8.693,-0.77,-1.75,0
8.714,-0.89,-1.75,0
8.733,-0.65,-1.87,0
8.754,-0.53,-1.75,0
8.774,-0.4,-1.75,0
8.793,-0.53,-1.75,0
8.815,-0.89,-1.5,0
8.834,-0.53,-1.5,0
8.855,-0.28,-1.5,0
8.874,-1.01,-2.48,0
8.894,-3.09,-4.19,0
8.914,-4.8,-5.78,0
8.933,-6.51,-8.35,0
8.933,-8.59,-9.81,0
8.96,-9.69,-10.42,0
8.974,-10.42,-10.67,0
8.994,-10.67,-10.91,0
9.014,-10.91,-10.91,0
9.034,-11.03,-11.16,0
9.055,-11.16,-11.16,0
9.074,-11.28,-11.16,0
9.093,-11.28,-11.16,0
9.114,-11.16,-11.28,0
9.143,-11.28,-11.16,0
9.153,-11.28,-11.28,0
9.174,-11.28,-11.28,0
9.194,-11.28,-11.28,0
9.213,-11.28,-11.28,0
9.234,-11.4,-11.28,0
9.254,-11.28,-11.4,0
9.274,-11.28,-11.4,0
9.294,-11.4,-11.4,1
9.314,-11.4,-11.4,1
9.335,-11.4,-11.4,1
9.335,-11.4,-11.4,1
9.36,-11.4,-11.4,1
9.375,-11.4,-11.4,1
9.395,-11.4,-11.4,1
9.415,-11.4,-11.4,1
9.443,-11.28,-11.16,1
9.456,-10.67,-10.67,1
9.476,-10.06,-9.32,1
9.495,-8.71,-7.73,1
9.515,-6.88,-6.51,1
9.536,-5.66,-5.66,1
9.555,-4.56,-4.8,1
9.575,-3.82,-4.31,1
9.595,-3.34,-3.95,1
9.615,-3.09,-3.46,1
9.635,-2.6,-3.34,0
9.655,-2.11,-3.09,0
9.675,-1.99,-2.72,0
9.695,-1.87,-2.6,0
9.716,-1.75,-2.36,0
9.735,-1.26,-2.24,0
9.735,-1.01,-2.24,0
9.756,-0.89,-2.24,0
9.775,-1.26,-1.99,0
9.795,-1.01,-1.99,0
9.816,-0.77,-1.99,0
9.835,-0.65,-1.75,0
9.855,-0.65,-1.87,0
9.876,-0.77,-1.87,0
9.895,-0.65,-1.87,0
9.916,-0.28,-1.87,0
9.944,-0.53,-1.75,0
9.955,-0.77,-1.63,0
9.975,-0.53,-1.63,0
9.995,-0.28,-1.63,0
10.016,-0.28,-1.63,0
10.035,-2.11,-3.46,0
10.055,-4.07,-5.05,0
10.075,-5.66,-6.76,0
10.096,-7.98,-9.08,0
10.116,-9.45,-10.06,0
10.136,-10.3,-10.54,0
10.136,-10.67,-10.79,0
10.157,-10.91,-10.91,0
10.177,-11.03,-11.03,0
10.196,-11.03,-11.16,0
10.217,-11.16,-11.16,0
10.238,-11.28,-11.16,0
10.256,-11.28,-11.16,0
10.277,-11.28,-11.28,0
10.297,-11.4,-11.28,0
10.316,-11.4,-11.28,0
10.337,-11.4,-11.28,0
10.357,-11.4,-11.4,0
10.376,-11.4,-11.28,0
10.396,-11.4,-11.28,0
10.417,-11.4,-11.4,0
10.437,-11.4,-11.4,1
10.457,-11.4,-11.4,1
10.477,-11.4,-11.4,1
10.496,-11.4,-11.4,1
10.516,-11.4,-11.4,1
10.536,-11.52,-11.4,1
10.536,-11.52,-11.4,1
10.556,-11.4,-11.16,1
10.577,-10.91,-10.67,1
10.597,-10.3,-9.81,1
10.616,-9.69,-8.22,1
10.637,-8.47,-7,1
10.657,-6.63,-5.9,1
10.677,-5.66,-5.05,1
10.697,-4.44,-4.56,1
10.717,-3.7,-4.07,1
10.736,-3.21,-3.58,1
10.756,-2.97,-3.46,0
10.776,-2.72,-3.09,0
10.797,-2.11,-2.85,0
10.817,-1.75,-2.72,0
10.837,-1.75,-2.48,0
10.86,-1.75,-2.36,0
10.877,-1.26,-2.36,0
10.896,-0.89,-2.24,0
10.917,-0.89,-2.11,0
10.936,-1.14,-1.99,0
10.957,-1.14,-1.87,0
10.976,-0.65,-1.87,0
10.996,-0.65,-1.75,0
11.016,-0.65,-1.75,0
11.037,-0.77,-1.87,0
11.057,-0.65,-1.75,0
11.076,-0.4,-1.63,0
11.097,-0.4,-1.5,0
11.116,-0.53,-1.5,0
11.137,-0.77,-1.38,0
11.157,-0.28,-1.5,0
11.177,-1.75,-3.09,0
11.197,-3.82,-4.68,0
11.217,-5.41,-6.02,0
11.237,-7.73,-7.73,0
11.257,-9.45,-9.57,0
11.277,-10.18,-10.3,0
11.297,-10.67,-10.67,0
11.317,-10.79,-10.91,0
11.337,-11.03,-11.03,0
11.357,-11.16,-11.16,0
11.377,-11.16,-11.16,0
11.397,-11.16,-11.28,0
11.418,-11.28,-11.16,0
11.437,-11.28,-11.28,0
11.457,-11.28,-11.28,0
11.477,-11.28,-11.28,0
11.497,-11.28,-11.28,0
11.518,-11.4,-11.28,0
11.538,-11.4,-11.4,0
11.557,-11.28,-11.28,0
11.577,-11.28,-11.4,0
11.598,-11.4,-11.28,0
11.617,-11.4,-11.4,1
11.637,-11.4,-11.4,1
11.658,-11.4,-11.4,1
11.677,-11.4,-11.4,1
11.697,-11.4,-11.4,1
11.718,-11.4,-11.4,1
11.737,-11.4,-11.28,1
11.74,-11.03,-10.79,1
11.76,-10.3,-9.93,1
11.78,-9.2,-8.35,1
11.801,-7.49,-6.88,1
11.821,-5.9,-5.78,1
11.841,-4.92,-5.05,1
11.861,-4.19,-4.44,1
11.881,-3.58,-4.07,1
11.901,-3.09,-3.7,0
11.921,-2.72,-3.46,0
11.94,-2.48,-3.09,0
11.961,-2.11,-2.85,0
11.981,-1.87,-2.6,0
12,-1.63,-2.48,0
12.021,-1.63,-2.36,0
12.041,-1.26,-2.24,0
12.061,-1.01,-2.11,0
12.081,-0.89,-2.11,0
12.101,-1.14,-1.99,0
12.121,-1.01,-1.87,0
12.141,-0.77,-1.75,0
12.162,-0.77,-1.75,0
12.181,-0.65,-1.87,0
12.202,-0.65,-1.87,0
12.222,-0.53,-1.75,0
12.242,-0.4,-1.63,0
12.261,-0.4,-1.5,0
12.282,-0.53,-1.38,0
12.302,-0.4,-1.5,0
12.322,-0.28,-1.75,0
12.342,-1.26,-2.72,0
12.361,-3.46,-4.68,0
12.382,-5.05,-6.76,0
12.401,-7.12,-9.08,0
12.421,-9.08,-10.18,0
12.441,-10.06,-10.54,0
12.461,-10.67,-10.79,0
12.482,-10.79,-11.03,0
12.502,-10.91,-11.03,0
12.521,-11.16,-11.16,0
12.542,-11.28,-11.16,0
12.562,-11.16,-11.28,0
12.583,-11.16,-11.28,0
12.602,-11.28,-11.28,0
12.622,-11.4,-11.28,0
12.642,-11.4,-11.28,0
12.662,-11.28,-11.28,0
12.682,-11.4,-11.28,0
12.703,-11.4,-11.28,0
12.722,-11.4,-11.4,0
12.742,-11.4,-11.4,0
12.762,-11.4,-11.28,0
12.782,-11.4,-11.4,1
12.803,-11.52,-11.4,1
12.822,-11.4,-11.4,1
12.842,-11.4,-11.4,1
12.862,-11.52,-11.4,1
12.882,-11.4,-11.4,1
12.902,-11.4,-11.4,1
12.922,-11.03,-10.91,1
12.942,-10.42,-10.06,1
12.942,-9.2,-8.47,1
12.962,-7.37,-6.88,1
12.983,-5.9,-5.78,1
13.003,-4.92,-5.05,1
13.023,-4.07,-4.44,1
13.043,-3.58,-4.07,1
13.063,-2.97,-3.7,0
13.083,-2.85,-3.34,0
13.103,-2.36,-3.21,0
13.123,-1.99,-2.85,0
13.143,-1.87,-2.6,0
13.163,-1.63,-2.48,0
13.182,-1.75,-2.36,0
13.202,-1.01,-2.24,0
13.223,-0.89,-2.36,0
13.242,-0.89,-2.24,0
13.262,-1.14,-1.99,0
13.283,-1.01,-1.99,0
13.303,-0.65,-1.87,0
13.322,-0.53,-1.87,0
13.343,-0.65,-1.99,0
13.344,-0.77,-1.87,0
13.364,-0.53,-1.75,0
13.384,-0.4,-1.75,0
13.404,-0.4,-1.63,0
13.424,-0.53,-1.5,0
13.444,-0.65,-1.63,0
13.464,-0.28,-1.63,0
13.484,-1.26,-2.48,0
13.504,-3.34,-4.44,0
13.524,-4.92,-6.27,0
13.544,-6.88,-8.71,0
13.565,-8.83,-9.93,0
13.584,-10.06,-10.42,0
13.604,-10.54,-10.79,0
13.624,-10.79,-10.91,0
13.644,-10.91,-11.03,0
13.664,-11.16,-11.16,0
13.684,-11.28,-11.16,0
13.705,-11.28,-11.28,0
13.724,-11.16,-11.28,0
13.745,-11.28,-11.28,0
13.766,-11.4,-11.28,0
13.785,-11.4,-11.28,0
13.806,-11.28,-11.28,0
13.825,-11.28,-11.28,0
13.846,-11.4,-11.28,0
13.865,-11.4,-11.28,0
13.885,-11.4,-11.28,0
13.905,-11.28,-11.4,0
13.925,-11.4,-11.4,1
13.945,-11.4,-11.4,1
13.965,-11.4,-11.4,1
13.986,-11.4,-11.4,1
14.005,-11.4,-11.4,1
14.025,-11.52,-11.4,1
14.046,-11.4,-11.4,1
14.066,-11.03,-11.03,1
14.086,-10.54,-10.3,1
14.105,-9.81,-9.45,1
14.126,-9.08,-8.35,1
14.146,-7.49,-7,1
14.166,-6.02,-5.78,1
14.187,-5.29,-5.05,1
14.206,-4.19,-4.56,1
14.226,-3.46,-4.07,1
14.246,-3.09,-3.7,0
14.266,-2.97,-3.34,0
14.286,-2.72,-3.21,0
14.307,-1.87,-2.85,0
14.326,-1.75,-2.6,0
14.346,-1.5,-2.48,0
14.366,-1.75,-2.36,0
14.386,-1.38,-2.24,0
14.407,-0.89,-2.24,0
14.427,-0.89,-2.11,0
14.446,-0.89,-1.99,0
14.466,-1.14,-1.99,0
14.486,-0.53,-1.87,0
14.507,-0.53,-1.75,0
14.526,-0.65,-1.87,0
14.546,-0.77,-1.87,0
14.566,-0.77,-1.75,0
14.587,-0.16,-1.75,0
14.607,-0.16,-1.5,0
14.627,-0.4,-1.5,0
14.647,-0.53,-1.5,0
14.667,-0.77,-2.24,0
14.687,-2.85,-4.07,0
14.707,-4.68,-5.78,0
14.727,-6.39,-8.35,0
14.747,-8.71,-9.81,0
14.767,-9.81,-10.3,0
14.787,-10.42,-10.67,0
14.807,-10.67,-10.79,0
14.826,-10.91,-11.03,0
14.847,-11.16,-11.03,0
14.867,-11.16,-11.16,0
14.887,-11.16,-11.28,0
14.907,-11.16,-11.28,0
14.926,-11.28,-11.16,0
14.947,-11.4,-11.16,0
14.948,-11.28,-11.28,0
14.968,-11.28,-11.4,0
14.988,-11.4,-11.28,0
15.008,-11.4,-11.28,0
15.028,-11.4,-11.28,0
15.048,-11.28,-11.4,0
15.069,-11.4,-11.4,1
15.089,-11.4,-11.28,1
15.108,-11.4,-11.4,1
15.129,-11.4,-11.4,1
15.148,-11.4,-11.4,1
15.168,-11.52,-11.4,1
15.189,-11.4,-11.4,1
15.208,-11.4,-11.4,1
15.228,-11.28,-11.03,1
15.248,-10.67,-10.54,1
15.269,-9.93,-9.93,1
15.289,-8.35,-8.71,1
15.308,-6.63,-7.25,1
15.329,-5.41,-6.15,1
15.348,-4.8,-5.41,1
15.348,-4.07,-4.68,1
15.369,-3.21,-4.19,1
15.389,-2.97,-3.7,1
15.409,-2.6,-3.46,1
15.429,-2.6,-3.21,0
15.449,-1.99,-2.97,0
15.468,-1.63,-2.72,0
15.488,-1.5,-2.6,0
15.509,-1.5,-2.36,0
15.529,-1.38,-2.24,0
15.549,-0.77,-2.24,0
15.568,-0.77,-2.11,0
15.588,-0.77,-2.11,0
15.608,-1.01,-1.99,0
15.628,-0.89,-1.87,0
15.649,-0.53,-1.87,0
15.668,-0.65,-1.75,0
15.689,-0.65,-1.75,0
15.709,-0.77,-1.87,0
15.729,-0.28,-1.87,0
15.749,-0.4,-1.63,0
15.749,-0.53,-1.63,0
15.769,-0.53,-1.5,0
15.789,-0.77,-1.87,0
15.809,-2.6,-3.7,0
15.829,-4.44,-5.29,0
15.849,-6.02,-7.98,0
15.869,-8.35,-9.57,0
15.89,-9.81,-10.3,0
15.909,-10.42,-10.67,0
15.929,-10.54,-10.91,0
15.949,-10.91,-11.03,0
15.969,-11.03,-11.03,0
15.99,-11.16,-11.16,0
16.01,-11.16,-11.28,0
16.029,-11.28,-11.28,0
16.049,-11.28,-11.28,0
16.076,-11.28,-11.28,0
16.09,-11.28,-11.28,0
16.11,-11.28,-11.4,0
16.129,-11.28,-11.28,0
16.149,-11.4,-11.28,0
16.177,-11.28,-11.4,0
16.19,-11.28,-11.4,1
16.21,-11.4,-11.4,1
16.23,-11.4,-11.4,1
16.25,-11.4,-11.4,1
16.277,-11.4,-11.4,1
16.29,-11.4,-11.4,1
16.31,-11.4,-11.4,1
16.33,-11.4,-11.4,1
16.35,-11.4,-11.4,1
16.372,-11.28,-11.16,1
16.389,-10.67,-10.67,1
16.409,-10.06,-9.45,1
16.429,-8.35,-7.73,1
16.45,-6.63,-6.51,1
16.476,-5.54,-5.66,1
16.49,-4.8,-4.92,1
16.51,-4.07,-4.44,1
16.529,-3.34,-3.95,1
16.55,-2.97,-3.58,1
16.576,-2.6,-3.34,1
16.591,-2.48,-3.09,0
16.61,-1.99,-2.85,0
16.63,-1.63,-2.72,0
16.654,-1.5,-2.48,0
16.67,-1.5,-2.36,0
16.691,-1.38,-2.24,0
16.711,-0.89,-2.11,0
16.73,-0.89,-2.11,0
16.75,-0.77,-2.11,0
16.777,-1.01,-1.99,0
16.791,-0.77,-1.87,0
16.811,-0.53,-1.87,0
16.831,-0.65,-1.75,0
16.85,-0.53,-1.75,0
16.876,-0.65,-1.87,0
16.89,-0.28,-1.87,0
16.91,-0.16,-1.75,0
16.931,-0.4,-1.63,0
16.95,-0.4,-1.5,0
16.97,-0.4,-1.5,0
16.991,-2.11,-3.34,0
17.01,-4.07,-4.92,0
17.031,-5.66,-6.27,0
17.051,-7.98,-8.59,0
17.072,-9.57,-9.81,0
17.093,-10.3,-10.42,0
17.111,-10.54,-10.67,0
17.131,-10.79,-10.91,0
17.151,-11.03,-11.03,0
17.176,-11.16,-11.16,0
17.19,-11.16,-11.16,0
17.211,-11.16,-11.16,0
17.231,-11.28,-11.28,0
17.258,-11.28,-11.28,0
17.27,-11.28,-11.28,0
17.291,-11.28,-11.28,0
17.311,-11.28,-11.28,0
17.331,-11.4,-11.28,0
17.351,-11.4,-11.28,0
17.351,-11.4,-11.28,0
17.371,-11.4,-11.28,1
17.391,-11.4,-11.28,1
17.411,-11.4,-11.28,1
17.431,-11.4,-11.4,1
17.451,-11.4,-11.4,1
17.472,-11.4,-11.4,1
17.491,-11.4,-11.4,1
17.511,-11.4,-11.4,1
17.531,-11.4,-11.28,1
17.551,-10.91,-10.67,1
17.571,-10.18,-9.93,1
17.592,-8.96,-8.35,1
17.611,-7.12,-7,1
17.631,-5.9,-6.02,1
17.651,-4.92,-5.29,1
17.671,-4.31,-4.68,1
17.691,-3.46,-4.07,1
17.711,-2.97,-3.82,1
17.731,-2.72,-3.46,1
17.752,-2.48,-3.21,0
17.772,-2.24,-2.97,0
17.793,-1.75,-2.72,0
17.812,-1.63,-2.6,0
17.832,-1.5,-2.48,0
17.853,-1.63,-2.36,0
17.872,-1.01,-2.36,0
17.892,-0.89,-2.24,0
17.912,-0.89,-2.11,0
17.933,-1.01,-2.11,0
17.953,-1.01,-1.99,0
17.972,-0.65,-1.87,0
17.992,-0.53,-1.87,0
18.012,-0.65,-1.75,0
18.032,-0.89,-1.75,0
18.052,-0.53,-1.75,0
18.072,-0.28,-1.75,0
18.092,-0.53,-1.5,0
18.112,-0.4,-1.5,0
18.132,-0.53,-1.63,0
18.152,-1.99,-3.09,0
18.152,-3.95,-4.8,0
18.173,-5.41,-7.12,0
18.192,-7.61,-9.2,0
18.212,-9.45,-10.06,0
18.233,-10.18,-10.54,0
18.253,-10.54,-10.79,0
18.273,-10.79,-10.91,0
18.293,-11.03,-11.03,0
18.312,-11.16,-11.16,0
18.333,-11.16,-11.16,0
18.352,-11.16,-11.16,0
18.373,-11.28,-11.16,0
18.393,-11.28,-11.28,0
18.412,-11.28,-11.28,0
18.433,-11.28,-11.28,0
18.453,-11.28,-11.28,0
18.472,-11.4,-11.4,0
18.493,-11.4,-11.28,0
18.512,-11.28,-11.28,0
18.532,-11.4,-11.28,1
18.553,-11.4,-11.4,1
18.554,-11.4,-11.4,1
18.574,-11.4,-11.4,1
18.594,-11.4,-11.4,1
18.614,-11.4,-11.4,1
18.634,-11.4,-11.28,1
18.655,-11.4,-11.4,1
18.674,-11.4,-11.28,1
18.694,-10.91,-10.79,1
18.714,-10.3,-10.06,1
18.735,-9.2,-8.35,1
18.754,-7.37,-6.88,1
18.774,-5.9,-6.02,1
18.794,-5.05,-5.17,1
18.814,-4.44,-4.56,1
18.835,-3.7,-4.19,1
18.854,-3.09,-3.7,1
18.875,-2.72,-3.46,1
18.894,-2.48,-3.21,0
18.915,-2.36,-2.97,0
18.934,-1.63,-2.72,0
18.955,-1.5,-2.6,0
18.975,-1.5,-2.36,0
18.995,-1.5,-2.36,0
19.015,-1.14,-2.24,0
19.035,-0.77,-2.11,0
19.055,-0.77,-2.11,0
19.075,-0.89,-2.11,0
19.095,-0.89,-1.87,0
19.115,-0.53,-1.87,0
19.136,-0.4,-1.75,0
19.155,-0.65,-1.75,0
19.175,-0.65,-1.87,0
19.195,-0.53,-1.87,0
19.215,-0.28,-1.63,0
19.235,-0.28,-1.63,0
19.255,-0.4,-1.5,0
19.275,-0.4,-1.38,0
19.295,-1.5,-2.85,0
19.315,-3.58,-4.68,0
19.336,-5.17,-6.76,0
19.355,-7.37,-9.08,0
19.375,-9.32,-10.06,0
19.396,-10.18,-10.54,0
19.415,-10.54,-10.79,0
19.436,-10.79,-10.91,0
19.455,-11.03,-11.03,0
19.475,-11.16,-11.16,0
19.495,-11.16,-11.16,0
19.516,-11.28,-11.28,0
19.536,-11.28,-11.28,0
19.555,-11.4,-11.28,0
19.576,-11.28,-11.28,0
19.596,-11.28,-11.28,0
19.615,-11.4,-11.4,0
19.635,-11.4,-11.28,0
19.655,-11.4,-11.28,0
19.676,-11.28,-11.28,0
19.696,-11.4,-11.4,1
19.716,-11.4,-11.28,1
19.735,-11.4,-11.28,1
19.757,-11.4,-11.4,1
19.777,-11.4,-11.4,1
19.797,-11.4,-11.4,1
19.817,-11.52,-11.4,1
19.837,-11.4,-11.4,1
19.857,-11.4,-11.4,1
19.877,-11.03,-10.91,1
19.898,-10.3,-10.06,1
19.917,-9.32,-8.35,1
19.937,-7.49,-6.88,1
19.957,-6.15,-6.02,1
19.977,-5.05,-5.17,1
19.997,-4.44,-4.68,1
20.017,-3.82,-4.07,1
20.037,-3.09,-3.7,1
20.057,-2.85,-3.46,1
20.077,-2.6,-3.09,0
20.097,-2.36,-3.09,0
20.117,-1.87,-2.85,0
20.138,-1.63,-2.6,0
20.158,-1.38,-2.48,0
20.158,-1.5,-2.36,0
20.179,-1.26,-2.24,0
20.199,-0.77,-2.24,0
20.218,-0.89,-2.24,0
20.239,-1.01,-1.99,0
20.259,-0.89,-1.99,0
20.279,-0.77,-1.87,0
20.299,-0.53,-1.75,0
20.318,-0.65,-1.87,0
20.338,-0.65,-1.87,0
20.359,-0.65,-1.87,0
20.378,-0.28,-1.87,0
20.398,-0.4,-1.75,0
20.419,-0.53,-1.63,0
20.438,-0.4,-1.63,0
20.459,-1.5,-2.85,0
20.479,-3.46,-4.8,0
20.498,-5.05,-7.12,0
20.518,-7.12,-9.2,0
20.539,-9.2,-10.06,0
20.558,-10.06,-10.54,0
20.558,-10.42,-10.67,0
20.579,-10.79,-10.91,0
20.598,-11.03,-11.03,0
20.619,-11.16,-11.16,0
20.638,-11.16,-11.16,0
20.659,-11.16,-11.16,0
20.679,-11.28,-11.28,0
20.698,-11.28,-11.28,0
20.719,-11.28,-11.28,0
20.739,-11.28,-11.28,0
20.758,-11.4,-11.28,0
20.778,-11.4,-11.28,0
20.799,-11.28,-11.28,0
20.818,-11.28,-11.28,0
20.841,-11.4,-11.4,1
20.86,-11.4,-11.4,1
20.878,-11.4,-11.4,1
20.899,-11.4,-11.4,1
20.918,-11.4,-11.4,1
20.943,-11.52,-11.4,1
20.959,-11.52,-11.4,1
20.959,-11.4,-11.4,1
20.98,-11.4,-11.4,1
20.999,-11.03,-10.91,1
21.02,-10.42,-10.3,1
21.039,-9.57,-9.57,1
21.059,-7.73,-8.35,1
21.079,-6.15,-6.76,1
21.099,-5.17,-5.9,1
21.119,-4.44,-5.29,1
21.139,-3.95,-4.68,1
21.159,-3.21,-4.19,1
21.179,-2.85,-3.82,1
21.199,-2.6,-3.58,1
21.227,-2.48,-3.34,1
21.239,-2.11,-3.09,0
21.259,-1.63,-2.97,0
21.279,-1.63,-2.72,0
21.3,-1.5,-2.48,0
21.319,-1.38,-2.48,0
21.344,-0.89,-2.36,0
21.359,-0.89,-2.24,0
21.38,-0.89,-2.24,0
21.4,-1.01,-2.24,0
21.421,-0.89,-1.99,0
21.44,-0.53,-1.99,0
21.46,-0.65,-1.87,0
21.48,-0.65,-1.87,0
21.5,-0.65,-1.87,0
21.52,-0.53,-1.87,0
21.54,-0.28,-1.87,0
21.56,-0.4,-1.75,0
21.58,-0.53,-1.63,0
21.6,-1.26,-2.6,0
21.62,-3.34,-4.44,0
21.64,-4.92,-5.78,0
21.66,-6.88,-7.37,0
21.679,-9.08,-9.32,0
21.699,-10.06,-10.06,0
21.72,-10.42,-10.54,0
21.74,-10.79,-10.79,0
21.76,-11.03,-10.91,0
21.781,-11.03,-11.03,0
21.801,-11.16,-11.16,0
21.821,-11.16,-11.16,0
21.843,-11.28,-11.16,0
21.861,-11.28,-11.28,0
21.88,-11.28,-11.28,0
21.9,-11.28,-11.16,0
21.927,-11.28,-11.28,0
21.941,-11.28,-11.28,0
21.96,-11.28,-11.28,0
21.98,-11.28,-11.28,0
22.001,-11.4,-11.28,1
22.022,-11.4,-11.28,1
22.04,-11.4,-11.28,1
22.06,-11.4,-11.28,1
22.081,-11.4,-11.4,1
22.101,-11.4,-11.4,1
22.127,-11.4,-11.4,1
22.141,-11.4,-11.4,1
22.161,-11.4,-11.4,1
22.182,-11.03,-10.91,1
22.201,-10.42,-10.18,1
22.221,-9.57,-8.59,1
22.242,-7.98,-7,1
22.261,-6.27,-6.02,1
22.282,-5.17,-5.41,1
22.301,-4.44,-4.68,1
22.322,-4.07,-4.31,1
22.342,-3.46,-3.95,1
22.361,-2.85,-3.58,1
22.381,-2.6,-3.34,1
22.401,-2.36,-3.21,0
22.422,-2.24,-2.97,0
22.441,-1.75,-2.85,0
22.462,-1.63,-2.72,0
22.481,-1.5,-2.48,0
22.501,-1.5,-2.48,0
22.522,-1.26,-2.36,0
22.541,-1.01,-2.24,0
22.561,-1.01,-2.36,0
22.582,-1.14,-2.24,0
22.601,-1.14,-2.11,0
22.623,-0.77,-1.99,0
22.642,-0.77,-1.99,0
22.662,-0.77,-1.99,0
22.682,-0.89,-2.11,0
22.702,-0.77,-1.99,0
22.722,-0.53,-1.87,0
22.742,-0.65,-1.87,0
22.762,-0.53,-1.75,0
22.782,-1.14,-2.48,0
22.802,-3.09,-4.31,0
22.822,-4.8,-5.78,0
22.842,-6.51,-7.86,0
22.862,-8.71,-9.57,0
22.882,-9.93,-10.18,0
22.902,-10.42,-10.67,0
22.922,-10.79,-10.79,0
22.942,-10.91,-11.03,0
22.962,-11.03,-11.03,0
22.962,-11.03,-11.16,0
22.982,-11.16,-11.16,0
23.002,-11.28,-11.28,0
23.022,-11.28,-11.28,0
23.043,-11.28,-11.28,0
23.062,-11.28,-11.16,0
23.083,-11.4,-11.28,0
23.102,-11.4,-11.28,0
23.123,-11.28,-11.28,0
23.142,-11.28,-11.28,0
23.163,-11.28,-11.28,1
23.182,-11.4,-11.28,1
23.202,-11.4,-11.4,1
23.222,-11.4,-11.28,1
23.242,-11.4,-11.28,1
23.263,-11.4,-11.28,1
23.283,-11.4,-11.28,1
23.302,-11.4,-11.4,1
23.322,-11.4,-11.4,1
23.343,-11.16,-11.03,1
23.362,-10.67,-10.42,1
23.392,-9.81,-8.96,1
23.402,-7.98,-7.37,1
23.423,-6.39,-6.27,1
23.443,-5.29,-5.54,1
23.462,-4.44,-4.92,1
23.483,-4.07,-4.31,1
23.503,-3.46,-3.95,1
23.523,-2.85,-3.7,1
23.543,-2.6,-3.34,1
23.562,-2.24,-3.09,0
23.583,-2.11,-2.97,0
23.602,-1.75,-2.72,0
23.622,-1.5,-2.6,0
23.643,-1.38,-2.48,0
23.662,-1.38,-2.36,0
23.683,-1.01,-2.36,0
23.703,-0.77,-2.36,0
23.723,-1.01,-2.24,0
23.743,-0.89,-2.24,0
23.763,-1.01,-2.11,0
23.763,-0.77,-1.99,0
23.784,-0.53,-1.99,0
23.803,-0.65,-1.99,0
23.823,-0.77,-1.99,0
23.843,-0.53,-2.11,0
23.863,-0.28,-1.87,0
23.884,-0.53,-1.75,0
23.903,-0.4,-1.87,0
23.923,-0.77,-2.11,0
23.943,-2.72,-4.07,0
23.963,-4.56,-5.66,0
23.984,-6.02,-8.35,0
24.004,-8.47,-9.69,0
24.023,-9.93,-10.3,0
24.043,-10.3,-10.67,0
24.063,-10.67,-10.91,0
24.083,-11.03,-11.03,0
24.104,-11.03,-11.03,0
24.124,-11.16,-11.16,0
24.144,-11.16,-11.16,0
24.163,-11.28,-11.16,0
24.163,-11.28,-11.16,0
24.183,-11.28,-11.28,0
24.203,-11.28,-11.28,0
24.224,-11.28,-11.28,0
24.244,-11.4,-11.28,0
24.264,-11.4,-11.28,0
24.284,-11.28,-11.28,0
24.304,-11.4,-11.28,1
24.323,-11.4,-11.28,1
24.344,-11.4,-11.28,1
24.364,-11.4,-11.28,1
24.384,-11.4,-11.28,1
24.403,-11.4,-11.28,1
24.423,-11.4,-11.4,1
24.443,-11.4,-11.4,1
24.463,-11.4,-11.4,1
24.484,-11.28,-11.16,1
24.503,-10.79,-10.54,1
24.523,-10.06,-9.32,1
24.543,-8.59,-7.61,1
24.563,-6.76,-6.39,1
24.583,-5.54,-5.66,1
24.603,-4.68,-5.05,1
24.624,-4.07,-4.44,1
24.644,-3.58,-4.07,1
24.664,-2.97,-3.7,1
24.683,-2.6,-3.46,1
24.703,-2.36,-3.21,0
24.723,-2.11,-3.09,0
24.743,-1.99,-2.85,0
24.763,-1.5,-2.72,0
24.784,-1.38,-2.48,0
24.803,-1.38,-2.36,0
24.823,-1.26,-2.36,0
24.843,-0.89,-2.24,0
24.863,-1.01,-2.24,0
24.883,-0.89,-2.24,0
24.904,-0.89,-1.99,0
24.924,-0.89,-1.99,0
24.943,-0.53,-1.99,0
24.963,-0.77,-1.99,0
24.983,-0.65,-1.99,0
25.003,-0.65,-1.99,0
25.024,-0.53,-1.87,0
25.044,-0.53,-1.75,0
25.064,-0.4,-1.75,0
25.084,-0.65,-1.63,0
25.104,-2.24,-3.58,0
25.123,-4.19,-5.17,0
25.143,-5.66,-7.73,0
25.163,-8.1,-9.45,0
25.184,-9.69,-10.18,0
25.203,-10.3,-10.54,0
25.224,-10.54,-10.79,0
25.244,-10.91,-10.91,0
25.263,-10.91,-11.03,0
25.283,-11.03,-11.16,0
25.304,-11.16,-11.16,0
25.324,-11.28,-11.16,0
25.344,-11.28,-11.16,0
25.364,-11.28,-11.16,0
25.364,-11.28,-11.28,0
25.384,-11.28,-11.28,0
25.404,-11.4,-11.28,0
25.425,-11.4,-11.28,0
25.445,-11.4,-11.28,0
25.464,-11.28,-11.28,1
25.484,-11.4,-11.28,1
25.504,-11.4,-11.28,1
25.525,-11.4,-11.28,1
25.544,-11.4,-11.4,1
25.564,-11.4,-11.4,1
25.585,-11.4,-11.4,1
25.604,-11.4,-11.4,1
25.624,-11.4,-11.4,1
25.644,-11.28,-11.16,1
25.665,-10.79,-10.67,1
25.684,-10.18,-9.57,1
25.71,-8.83,-7.86,1
25.724,-7.12,-6.51,1
25.744,-5.66,-5.66,1
25.764,-4.68,-5.17,1
25.784,-4.19,-4.56,1
25.805,-3.7,-4.07,1
25.825,-3.21,-3.82,1
25.844,-2.72,-3.46,1
25.865,-2.36,-3.21,0
25.885,-1.99,-3.21,0
25.906,-1.99,-2.85,0
25.925,-1.5,-2.72,0
25.945,-1.5,-2.6,0
25.965,-1.38,-2.36,0
25.985,-1.14,-2.36,0
26.005,-1.01,-2.36,0
26.025,-0.89,-2.24,0
26.045,-0.89,-2.11,0
26.065,-0.89,-1.99,0
26.085,-1.01,-1.99,0
26.105,-0.65,-1.87,0
26.125,-0.65,-1.99,0
26.145,-0.65,-1.87,0
26.165,-0.53,-1.87,0
26.165,-0.53,-1.87,0
26.185,-0.28,-1.75,0
26.205,-0.4,-1.63,0
26.225,-0.53,-1.63,0
26.245,-1.99,-3.34,0
26.265,-3.95,-5.05,0
26.285,-5.54,-7.73,0
26.306,-7.61,-9.45,0
26.325,-9.57,-10.18,0
26.346,-10.18,-10.67,0
26.365,-10.67,-10.91,0
26.393,-10.91,-11.03,0
26.405,-11.03,-11.16,0
26.425,-11.16,-11.28,0
26.445,-11.28,-11.28,0
26.465,-11.28,-11.28,0
26.485,-11.4,-11.28,0
26.506,-11.28,-11.28,0
26.525,-11.4,-11.28,0
26.546,-11.4,-11.4,0
26.565,-11.4,-11.4,0
26.586,-11.4,-11.4,0
26.605,-11.4,-11.4,0
26.626,-11.4,-11.4,1
26.645,-11.4,-11.4,1
26.665,-11.4,-11.4,1
26.685,-11.4,-11.4,1
26.705,-11.4,-11.4,1
26.725,-11.52,-11.4,1
26.745,-11.52,-11.4,1
26.765,-11.52,-11.4,1
26.786,-11.52,-11.4,1
26.805,-11.52,-11.4,1
26.825,-11.03,-10.91,1
26.845,-10.42,-10.06,1
26.866,-9.32,-8.35,1
26.885,-7.61,-6.88,1
26.905,-5.9,-5.9,1
26.925,-5.05,-5.29,1
26.945,-4.31,-4.68,1
26.965,-3.7,-4.07,1
26.965,-3.34,-3.7,1
26.993,-2.6,-3.34,1
27.005,-2.36,-3.09,1
27.025,-2.11,-2.97,0
27.046,-1.87,-2.72,0
27.065,-1.63,-2.48,0
27.085,-1.26,-2.24,0
27.106,-1.14,-2.11,0
27.125,-0.89,-1.99,0
27.145,-0.89,-1.99,0
27.165,-0.65,-1.99,0
27.191,-0.77,-1.87,0
27.206,-0.65,-1.75,0
27.225,-0.53,-1.75,0
27.245,-0.65,-1.63,0
27.265,-0.28,-1.63,0
27.285,-0.4,-1.63,0
27.31,-0.4,-1.63,0
27.325,-0.16,-1.63,0
27.345,-0.04,-1.63,0
27.365,-0.16,-1.38,0
27.385,-0.16,-1.38,0
27.406,-1.38,-2.85,0
27.425,-3.46,-4.56,0
27.445,-4.92,-6.76,0
27.466,-7.12,-8.96,0
27.486,-9.2,-9.93,0
27.507,-9.93,-10.54,0
27.526,-10.54,-10.79,0
27.546,-10.91,-11.03,0
27.567,-11.03,-11.16,0
27.589,,,
27.606,-11.16,-11.16,0
27.626,-11.28,-11.28,0
27.645,-11.28,-11.28,0
27.666,-11.28,-11.28,0
27.687,-11.4,-11.28,0
27.712,-11.4,-11.4,0
27.737,-11.4,-11.4,0
27.757,,,
27.765,-11.4,-11.28,0
27.781,-11.4,-11.28,0
27.806,-11.4,-11.4,0
27.831,-11.4,-11.4,1
27.855,-11.4,-11.4,1
27.88,-11.4,-11.4,1
27.9,,,
27.902,,,
27.921,-11.4,-11.4,1
27.941,-11.4,-11.4,1
27.962,-11.4,-11.4,1
27.982,-11.52,-11.4,1
28.002,-11.52,-11.4,1
28.023,-11.52,-11.4,1
28.047,-11.52,-11.4,1
28.068,,,
28.081,-11.16,-10.91,1
28.101,-10.54,-10.42,1
28.122,-9.57,-9.45,1
28.141,,,
28.162,-7.86,-7.86,1
28.182,-6.27,-6.51,1
28.183,-5.17,-5.66,1
28.204,,,
28.224,-4.31,-5.05,1
28.243,-3.7,-4.44,1
28.263,-3.46,-3.95,1
28.283,-2.6,-3.58,1
28.303,-2.36,-3.21,1
28.323,-2.11,-3.09,1
28.343,-1.75,-2.97,0
28.363,-1.63,-2.72,0
28.383,-1.26,-2.48,0
28.404,-1.26,-2.36,0
28.425,-0.89,-2.11,0
28.445,-0.89,-2.11,0
28.47,-0.65,-2.11,0
28.491,-0.65,-1.87,0
28.511,-0.65,-1.87,0
28.535,-0.4,-1.87,0
28.555,-0.65,-1.63,0
28.576,,,
28.583,-0.28,-1.63,0
28.604,-0.28,-1.63,0
28.624,-0.4,-1.63,0
28.644,,,
28.664,-0.28,-1.63,0
28.684,-0.16,-1.63,0
28.704,-0.16,-1.38,0
28.725,-0.16,-1.38,0
28.744,-1.26,-2.48,0
28.763,-3.21,-4.31,0
28.784,-4.8,-6.63,0
28.804,-6.02,-8.83,0
28.824,-7.98,-9.93,0
28.844,-9.57,-10.42,0
28.864,-10.3,-10.79,0
28.887,-10.67,-10.91,0
28.912,-10.91,-11.03,0
28.932,,,
28.943,-11.03,-11.16,0
28.964,-11.16,-11.16,0
28.983,-11.28,-11.28,0
29.006,-11.28,-11.28,0
29.031,-11.28,-11.28,0
29.055,-11.28,-11.28,0
29.08,-11.28,-11.28,0
29.101,,,
29.107,-11.4,-11.4,0
29.127,,,
29.147,-11.4,-11.4,0
29.166,-11.4,-11.4,0
29.186,-11.4,-11.4,1
29.207,-11.4,-11.4,1
29.227,-11.4,-11.4,1
29.248,-11.4,-11.4,1
29.268,,,
29.286,-11.4,-11.4,1
29.307,-11.4,-11.4,1
29.327,-11.52,-11.4,1
29.347,-11.52,-11.4,1
29.367,-11.52,-11.4,1
29.391,-11.52,-11.52,1
29.412,,,
29.432,-11.16,-11.03,1
29.452,-10.67,-10.42,1
29.472,-9.69,-9.08,1
29.493,-7.86,-7.49,1
29.513,-6.27,-6.27,1
29.533,-5.29,-5.41,1
29.552,-4.44,-4.92,1
29.573,-3.95,-4.44,1
29.593,-3.34,-3.95,1
29.616,-2.72,-3.58,1
29.637,-2.48,-3.21,1
29.658,-2.11,-2.97,1
29.682,-1.99,-2.85,0
29.702,-1.38,-2.6,0
29.722,-1.26,-2.48,0
29.747,-1.14,-2.36,0
29.768,-0.89,-2.11,0
29.788,,,
29.793,-0.89,-1.99,0
29.813,-0.77,-1.99,0
29.833,-0.77,-1.99,0
29.854,,,
29.873,-0.53,-1.87,0
29.893,-0.53,-1.87,0
29.913,-0.4,-1.75,0
29.933,-0.53,-1.63,0
29.954,-0.4,-1.63,0
29.973,-0.16,-1.63,0
29.993,-0.28,-1.5,0
30.013,-0.04,-1.63,0
30.035,-0.04,-1.5,0
30.056,-0.28,-1.26,0
30.074,-0.65,-1.99,0
30.096,-2.72,-3.82,0
30.116,,,
30.133,-4.44,-5.54,0
30.153,-6.02,-8.1,0
30.174,-8.47,-9.69,0
30.193,-9.93,-10.3,0
30.214,-10.54,-10.67,0
30.231,-10.79,-10.91,0
30.252,-11.03,-11.03,0
30.28,-11.16,-11.16,0
30.3,,,
30.312,-11.16,-11.16,0
30.331,-11.28,-11.28,0
30.353,-11.28,-11.28,0
30.376,-11.28,-11.28,0
30.398,-11.4,-11.28,0
30.423,-11.4,-11.28,0
30.443,,,
30.457,-11.4,-11.4,0
30.471,,,
30.492,-11.4,-11.4,0
30.512,-11.4,-11.28,0
30.531,-11.4,-11.4,1
30.552,-11.4,-11.4,1
30.573,-11.4,-11.4,1
30.593,-11.4,-11.4,1
30.612,,,
30.631,-11.4,-11.4,1
30.636,-11.4,-11.4,1
30.661,-11.4,-11.4,1
30.685,-11.52,-11.4,1
30.71,-11.52,-11.4,1
30.735,-11.52,-11.4,1
30.755,,,
30.758,,,
30.776,-11.28,-11.16,1
30.797,-10.79,-10.67,1
30.817,-10.06,-9.45,1
30.841,-8.35,-7.73,1
30.858,-6.63,-6.39,1
30.877,-5.41,-5.66,1
30.896,-4.68,-4.92,1
30.916,-3.82,-4.56,1
30.937,,,
30.96,-3.46,-4.07,1
30.977,-2.85,-3.58,1
30.997,-2.48,-3.21,1
31.017,-2.11,-3.09,1
31.037,-1.87,-2.85,0
31.058,-1.75,-2.72,0
31.077,-1.26,-2.6,0
31.098,-1.26,-2.36,0
31.118,-0.89,-2.11,0
31.138,-1.01,-2.11,0
31.16,-0.77,-1.99,0
31.177,-0.65,-1.87,0
31.201,-0.65,-1.87,0
31.222,-0.53,-1.87,0
31.243,-0.65,-1.75,0
31.267,-0.4,-1.75,0
31.287,-0.53,-1.63,0
31.308,,,
31.318,-0.28,-1.63,0
31.337,-0.28,-1.75,0
31.357,-0.16,-1.75,0
31.377,,,
31.397,-0.16,-1.5,0
31.417,-0.28,-1.5,0
31.437,-0.53,-1.75,0
31.44,,,
31.46,-2.48,-3.46,0
31.48,-4.31,-5.17,0
31.501,-5.9,-7.12,0
31.52,-8.22,-9.08,0
31.54,-9.81,-10.06,0
31.561,-10.42,-10.54,0
31.581,-10.79,-10.79,0
31.602,-11.03,-11.03,0
31.623,-11.16,-11.16,0
31.647,-11.16,-11.16,0
31.669,,,
31.681,-11.28,-11.28,0
31.701,-11.28,-11.28,0
31.72,-11.28,-11.28,0
31.742,-11.4,-11.4,0
31.766,-11.4,-11.4,0
31.791,-11.4,-11.4,0
31.816,-11.28,-11.4,0
31.836,,,
31.84,,,
31.84,,,
31.861,-11.4,-11.4,0
31.88,-11.4,-11.4,0
31.901,-11.4,-11.4,1
31.921,-11.52,-11.4,1
31.941,-11.52,-11.4,1
31.961,-11.4,-11.4,1
31.984,-11.52,-11.4,1
32.004,,,
32.021,-11.52,-11.4,1
32.04,-11.52,-11.4,1
32.061,-11.52,-11.4,1
32.08,-11.4,-11.52,1
32.102,-11.4,-11.16,1
32.127,-10.91,-10.67,1
32.147,,,
32.16,-10.18,-9.57,1
32.18,-8.71,-7.73,1
32.2,-6.88,-6.51,1
32.221,-5.54,-5.78,1
32.241,-4.8,-5.05,1
32.259,,,
32.28,-3.95,-4.56,1
32.299,-3.58,-4.07,1
32.319,-3.09,-3.58,1
32.339,-2.6,-3.34,1
32.36,-2.24,-3.09,1
32.379,-1.87,-2.85,0
32.399,-1.75,-2.72,0
32.419,-1.38,-2.48,0
32.439,-1.26,-2.24,0
32.46,-0.77,-2.11,0
32.479,-0.89,-2.11,0
32.499,-0.89,-1.99,0
32.52,,,
32.539,-0.65,-1.99,0
32.559,-0.65,-1.99,0
32.579,-0.53,-1.75,0
32.599,-0.53,-1.75,0
32.619,-0.4,-1.75,0
32.639,-0.4,-1.5,0
32.659,-0.28,-1.63,0
32.677,-0.16,-1.63,0
32.698,-0.16,-1.63,0
32.721,-0.04,-1.5,0
32.741,-0.16,-1.38,0
32.762,-0.28,-1.38,0
32.787,-1.99,-3.34,0
32.807,-3.95,-5.05,0
32.828,,,
32.837,-5.54,-7.49,0
32.857,-7.86,-9.32,0
32.878,-9.57,-10.18,0
32.897,-10.3,-10.54,0
32.918,,,
32.938,-10.79,-10.79,0
32.957,-10.91,-11.03,0
32.977,-11.16,-11.16,0
32.997,-11.16,-11.16,0
33.018,-11.28,-11.28,0
33.041,-11.4,-11.28,0
33.061,,,
33.077,-11.4,-11.28,0
33.086,,,
33.106,-11.4,-11.28,0
33.126,-11.4,-11.28,0
33.146,-11.4,-11.4,0
33.166,-11.52,-11.4,0
33.186,-11.52,-11.4,0
33.209,-11.4,-11.4,0
33.229,,,
33.246,-11.4,-11.4,1
33.266,-11.4,-11.4,1
33.287,-11.52,-11.4,1
33.307,-11.4,-11.4,1
33.327,-11.52,-11.4,1
33.351,-11.52,-11.4,1
33.372,,,
33.386,-11.52,-11.4,1
33.406,-11.4,-11.52,1
33.426,-11.52,-11.52,1
33.446,-11.4,-11.28,1
33.471,-10.91,-10.79,1
33.496,-10.3,-9.81,1
33.516,,,
33.536,-9.08,-8.1,1
33.556,-7.37,-6.63,1
33.576,-5.9,-5.9,1
33.596,-4.92,-5.17,1
33.616,-4.19,-4.56,1
33.636,-3.7,-4.19,1
33.656,-3.21,-3.7,1
33.676,-2.6,-3.34,1
33.696,-2.24,-3.09,1
33.716,,,
33.743,-1.75,-2.85,0
33.756,-1.75,-2.72,0
33.776,-1.38,-2.6,0
33.796,-1.14,-2.36,0
33.817,-1.01,-2.11,0
33.836,-0.77,-2.11,0
33.857,-0.89,-1.99,0
33.876,-0.77,-1.99,0
33.896,-0.53,-1.99,0
33.908,,,
33.928,-0.53,-1.87,0
33.949,-0.53,-1.63,0
33.969,-0.4,-1.75,0
33.989,-0.28,-1.63,0
34.008,-0.4,-1.5,0
34.029,0.09,-1.75,0
34.049,-0.16,-1.63,0
34.069,-0.04,-1.5,0
34.088,-0.04,-1.38,0
34.109,,,
34.129,-0.16,-1.38,0
34.149,-1.63,-2.97,0
34.169,-3.58,-4.68,0
34.189,-5.17,-7,0
34.209,-7.37,-9.08,0
34.229,-8.35,-10.06,0
34.249,-9.45,-10.54,0
34.27,-10.3,-10.79,0
34.289,-10.67,-11.03,0
34.311,-10.91,-11.03,0
34.332,-11.03,-11.16,0
34.355,-11.16,-11.28,0
34.38,,,
34.391,-11.28,-11.28,0
34.411,-11.28,-11.28,0
34.432,-11.28,-11.28,0
34.451,-11.28,-11.28,0
34.479,-11.4,-11.4,0
34.503,-11.4,-11.4,0
34.523,,,
34.531,-11.4,-11.4,0
34.552,-11.4,-11.4,0
34.576,-11.4,-11.4,1
34.597,-11.4,-11.4,1
34.619,-11.52,-11.4,1
34.646,-11.52,-11.4,1
34.671,-11.4,-11.4,1
34.691,,,
34.691,,,
34.711,-11.4,-11.4,1
34.716,,,
34.743,-11.4,-11.4,1
34.756,-11.52,-11.52,1
34.776,-11.52,-11.52,1
34.796,-11.4,-11.4,1
34.819,-11.16,-10.91,1
34.838,-10.54,-10.42,1
34.86,,,
34.876,-9.57,-9.2,1
34.896,-7.86,-7.49,1
34.916,-6.27,-6.39,1
34.936,-5.17,-5.54,1
34.956,-4.31,-4.92,1
34.976,-3.95,-4.44,1
34.996,-3.34,-3.82,1
35.017,-2.6,-3.46,1
35.037,-2.36,-3.09,1
35.06,,,
35.076,-1.87,-2.85,1
35.096,-1.75,-2.72,0
35.116,-1.38,-2.6,0
35.122,,,
35.142,-1.26,-2.24,0
35.162,-0.89,-2.11,0
35.184,-0.89,-1.99,0
35.202,-0.89,-1.87,0
35.222,-0.65,-1.75,0
35.242,-0.65,-1.63,0
35.263,-0.4,-1.63,0
35.282,-0.53,-1.5,0
35.302,-0.4,-1.38,0
35.326,-0.4,-1.26,0
35.343,-0.28,-1.38,0
35.363,0.09,-1.38,0
35.384,,,
35.403,-0.16,-1.38,0
35.422,-0.04,-1.26,0
35.443,0.09,-1.26,0
35.462,-0.16,-1.14,0
35.482,-1.01,-2.24,0
35.503,-3.09,-4.07,0
