Time (s),Pressure 1 (kPa),Pressure 2 (kPa),Switch State
0.089,-7.61,-7.86,1
0.109,-7.61,-7.86,1
0.129,-7.61,-7.98,1
0.149,-7.61,-7.98,1
0.169,-7.61,-7.98,1
0.189,-7.61,-7.98,1
0.209,-7.61,-7.86,1
0.229,-7.61,-7.86,1
0.249,-7.61,-7.98,1
0.269,-7.61,-7.98,1
0.289,-7.61,-7.98,1
0.309,-7.61,-7.86,1
0.329,-7.61,-7.98,1
0.349,-7.61,-7.86,1
0.369,-7.61,-7.86,1
0.389,-7.61,-7.98,1
0.409,-7.61,-7.86,1
0.429,-7.61,-7.86,1
0.449,-7.61,-7.98,1
0.469,-7.61,-7.86,1
0.489,-7.61,-7.98,1
0.509,-7.61,-7.98,1
0.529,-7.61,-7.86,1
0.551,-7.61,-7.86,1
0.569,-7.61,-7.86,1
0.589,-7.61,-7.98,1
0.61,-7.61,-7.98,1
0.629,-7.61,-7.86,1
0.649,-7.61,-7.86,1
0.669,-7.61,-7.98,1
0.689,-7.61,-7.86,1
0.71,-7.61,-7.86,1
0.729,-7.61,-7.86,1
0.75,-7.61,-7.86,1
0.769,-7.61,-7.86,1
0.789,-7.61,-7.86,1
0.809,-7.61,-7.86,1
0.829,-7.61,-7.98,1
0.849,-7.61,-7.98,1
0.869,-7.49,-7.98,1
0.889,-7.61,-7.98,1
0.909,-7.61,-7.98,1
0.929,-7.61,-7.98,1
0.95,-7.61,-7.86,1
0.969,-7.61,-7.98,1
0.989,-7.61,-7.98,1
1.01,-7.61,-7.98,1
1.029,-7.61,-7.98,1
1.05,-7.49,-7.98,1
1.069,-7.61,-7.86,1
1.089,-7.61,-7.98,1
1.109,-7.61,-7.86,1
1.129,-7.61,-7.98,1
1.149,-7.61,-7.98,1
1.169,-7.61,-7.98,1
1.189,-7.61,-7.98,1
1.21,-7.61,-7.98,1
1.229,-7.61,-7.86,1
1.249,-7.61,-7.98,1
1.269,-7.49,-7.86,1
1.289,-7.61,-7.98,1
1.29,-7.61,-7.98,1
1.31,-7.61,-7.98,1
1.33,-7.61,-7.98,1
1.35,-7.61,-7.86,1
1.37,-7.61,-7.86,1
1.39,-7.61,-7.86,1
1.41,-7.61,-7.98,1
1.43,-7.61,-7.98,1
1.45,-7.61,-7.86,1
1.47,-7.61,-7.86,1
1.49,-7.61,-7.86,1
1.51,-7.61,-7.86,1
1.53,-7.61,-7.98,1
1.55,-7.61,-7.86,1
1.57,-7.61,-7.86,1
1.59,-7.61,-7.86,1
1.61,-7.61,-7.86,1
1.63,-7.61,-7.98,1
1.65,-7.61,-7.98,1
1.67,-7.61,-7.98,1
1.69,-7.61,-7.86,1
1.71,-7.49,-7.98,1
1.73,-7.61,-7.98,1
1.75,-7.61,-7.98,1
1.77,-7.61,-7.98,1
1.79,-7.61,-7.98,1
1.81,-7.61,-7.98,1
1.83,-7.61,-7.86,1
1.85,-7.61,-7.98,1
1.87,-7.61,-7.86,1
1.89,-7.61,-7.98,1
1.91,-7.61,-7.86,1
1.93,-7.61,-7.98,1
1.95,-7.61,-7.86,1
1.97,-7.61,-7.86,1
1.99,-7.61,-7.86,1
2.01,-7.61,-7.86,1
2.03,-7.61,-7.98,1
2.05,-7.61,-7.98,1
2.07,-7.61,-7.98,1
2.091,-7.61,-7.98,1
2.111,-7.61,-7.86,1
2.131,-7.61,-7.98,1
2.151,-7.61,-7.98,1
2.171,-7.61,-7.98,1
2.191,-7.61,-7.98,1
2.211,-7.61,-7.98,1
2.231,-7.61,-7.98,1
2.251,-7.61,-7.86,1
2.271,-7.61,-7.86,1
2.291,-7.61,-7.98,1
2.312,-7.61,-7.86,1
2.331,-7.61,-7.86,1
2.351,-7.61,-7.86,1
2.371,-7.61,-7.98,1
2.391,-7.61,-7.86,1
2.411,-7.61,-7.86,1
2.431,-7.49,-7.86,1
2.451,-7.61,-7.86,1
2.471,-7.61,-7.86,1
2.491,-7.61,-7.98,1
2.512,-7.61,-7.86,1
2.531,-7.61,-7.98,1
2.551,-7.61,-7.86,1
2.571,-7.61,-7.86,1
2.591,-7.61,-7.98,1
2.611,-7.61,-7.98,1
2.631,-7.61,-7.98,1
2.651,-7.61,-7.98,1
2.671,-7.61,-7.86,1
2.691,-7.61,-7.98,1
2.711,-7.61,-7.86,1
2.731,-7.61,-7.86,1
2.751,-7.61,-7.98,1
2.771,-7.61,-7.98,1
2.791,-7.61,-7.86,1
2.811,-7.61,-7.86,1
2.831,-7.61,-7.98,1
2.851,-7.61,-7.86,1
2.871,-7.61,-7.86,1
2.891,-7.61,-7.86,1
2.892,-7.61,-7.98,1
2.912,-7.61,-7.98,1
2.933,-7.61,-7.86,1
2.952,-7.61,-7.98,1
2.972,-7.61,-7.86,1
2.992,-7.61,-7.98,1
3.012,-7.61,-7.98,1
3.032,-7.61,-7.98,1
3.052,-7.61,-7.98,1
3.072,-7.61,-7.98,1
3.092,-7.61,-7.98,1
3.112,-7.61,-7.86,1
3.132,-7.61,-7.98,1
3.152,-7.61,-7.98,1
3.172,-7.61,-7.86,1
3.192,-7.61,-7.86,1
3.212,-7.61,-7.98,1
3.232,-7.61,-7.98,1
3.252,-7.61,-7.86,1
3.272,-7.61,-7.86,1
3.292,-7.61,-7.86,1
3.292,-7.61,-7.86,1
3.312,-7.61,-7.86,1
3.332,-7.61,-7.86,1
3.352,-7.49,-7.98,1
3.372,-7.49,-7.86,1
3.392,-7.25,-7.86,1
3.412,-6.88,-7.98,1
3.432,-6.88,-7.86,1
3.452,-6.88,-7.86,1
3.472,-7.12,-7.86,1
3.492,-7.12,-7.98,1
3.512,-7.25,-7.86,1
3.532,-7.37,-7.98,1
3.552,-7.37,-7.98,1
3.572,-7.49,-7.98,1
3.592,-7.49,-7.98,1
3.612,-7.49,-7.86,1
3.632,-7.49,-7.98,1
3.652,-7.49,-7.86,1
3.672,-7.49,-7.98,1
3.693,-7.49,-7.98,1
3.713,-7.49,-7.86,1
3.733,-7.49,-7.98,1
3.753,-7.49,-7.86,1
3.773,-7.49,-7.98,1
3.793,-7.49,-8.1,1
3.813,-7.49,-8.59,1
3.833,-7.49,-8.83,1
3.853,-7.49,-8.71,1
3.873,-7.49,-8.47,1
3.893,-7.49,-8.35,1
3.913,-7.49,-8.22,1
3.933,-7.49,-8.1,1
3.953,-7.49,-8.1,1
3.973,-7.61,-7.98,1
3.993,-7.49,-7.98,1
4.013,-7.61,-7.98,1
4.033,-7.49,-7.98,1
4.053,-7.61,-7.98,1
4.073,-7.61,-7.98,1
4.093,-7.61,-7.98,1
4.113,-7.61,-7.98,1
4.133,-7.49,-7.98,1
4.153,-7.61,-7.98,1
4.173,-7.61,-7.86,1
4.193,-7.49,-7.98,1
4.213,-7.49,-7.98,1
4.233,-7.61,-7.98,1
4.253,-7.49,-7.98,1
4.273,-7.61,-7.98,1
4.293,-7.61,-7.98,1
4.313,-7.61,-7.98,1
4.333,-7.49,-7.98,1
4.353,-7.61,-7.98,1
4.373,-7.61,-7.98,1
4.393,-7.61,-7.98,1
4.413,-7.61,-7.98,1
4.433,-7.61,-7.98,1
4.453,-7.61,-7.98,1
4.473,-7.61,-7.98,1
4.493,-7.61,-7.98,1
4.513,-7.49,-7.98,1
4.533,-7.61,-7.98,1
4.553,-7.61,-7.98,1
4.573,-7.61,-7.98,1
4.593,-7.61,-7.98,1
4.613,-7.61,-7.98,1
4.633,-7.61,-7.98,1
4.653,-7.49,-7.98,1
4.673,-7.37,-7.86,1
4.693,-6.76,-7.61,1
4.713,-6.15,-7.12,1
4.733,-5.54,-6.88,1
4.753,-5.29,-6.63,1
4.773,-5.17,-6.15,1
4.793,-5.05,-5.9,1
4.813,-4.8,-5.78,1
4.833,-4.68,-5.54,1
4.853,-4.56,-5.41,1
4.873,-4.44,-5.29,1
4.893,-4.44,-5.29,1
4.894,-4.31,-5.17,1
4.914,-4.44,-5.17,1
4.934,-4.44,-5.17,1
4.954,-4.31,-5.17,1
4.974,-4.19,-5.17,0
4.994,-4.19,-5.17,0
5.014,-4.07,-5.05,0
5.034,-4.07,-5.05,0
5.054,-4.07,-5.05,0
5.074,-4.19,-4.92,0
5.094,-4.19,-4.92,0
5.114,-4.19,-4.92,0
5.134,-4.07,-4.92,0
5.154,-4.19,-4.92,0
5.174,-4.19,-4.92,0
5.194,-4.07,-4.92,0
5.214,-4.07,-4.92,0
5.234,-4.19,-4.92,0
5.254,-4.19,-4.92,0
5.274,-4.07,-4.92,0
5.294,-4.07,-4.92,0
5.295,-4.07,-4.92,0
5.315,-4.07,-4.92,0
5.335,-4.07,-4.8,0
5.355,-3.95,-4.8,0
5.375,-4.07,-4.8,0
5.395,-4.19,-4.92,0
5.415,-4.19,-4.92,0
5.435,-4.07,-4.92,0
5.455,-4.19,-5.05,0
5.475,-4.07,-5.05,0
5.495,-3.95,-5.05,0
5.515,-3.95,-4.92,0
5.535,-3.95,-4.92,0
5.555,-3.95,-4.8,0
5.575,-3.95,-4.8,0
5.595,-3.95,-4.8,0
5.615,-3.95,-4.8,0
5.635,-3.95,-4.8,0
5.655,-3.95,-4.8,0
5.675,-3.95,-4.92,0
5.695,-4.07,-4.92,0
5.695,-4.68,-5.54,0
5.715,-5.78,-6.51,0
5.735,-6.51,-7,0
5.756,-6.88,-7.73,0
5.775,-7.25,-8.71,0
5.795,-7.98,-9.32,0
5.815,-8.96,-9.57,0
5.835,-9.45,-9.69,0
5.855,-9.69,-9.81,0
5.875,-9.69,-9.81,0
5.895,-9.81,-9.93,0
5.915,-9.81,-9.93,0
5.935,-9.93,-9.93,0
5.955,-9.93,-9.93,0
5.975,-9.93,-9.93,0
5.995,-9.93,-9.93,0
6.015,-10.06,-10.06,0
6.035,-9.93,-10.06,0
6.055,-10.06,-10.06,0
6.075,-10.06,-10.06,0
6.095,-10.06,-10.06,0
6.096,-10.06,-10.06,0
6.116,-10.06,-10.06,0
6.136,-10.06,-10.06,0
6.156,-10.06,-10.06,0
6.176,-10.06,-10.06,0
6.196,-10.18,-10.06,0
6.216,-10.18,-10.06,0
6.236,-10.18,-10.18,0
6.256,-10.06,-10.18,0
6.276,-10.06,-10.18,0
6.296,-10.06,-10.18,0
6.316,-10.06,-10.18,0
6.336,-10.06,-10.06,0
6.356,-10.18,-10.18,0
6.376,-10.06,-10.18,0
6.396,-10.18,-10.18,0
6.416,-10.18,-10.18,0
6.436,-10.18,-10.18,1
6.456,-10.18,-10.06,1
6.476,-10.18,-10.18,1
6.496,-10.18,-10.18,1
6.516,-10.18,-10.18,1
6.536,-10.18,-10.18,1
6.556,-10.06,-10.18,1
6.576,-10.18,-10.18,1
6.596,-10.18,-10.18,1
6.616,-10.18,-10.18,1
6.636,-10.18,-10.18,1
6.656,-10.3,-10.18,1
6.676,-10.18,-10.18,1
6.696,-10.18,-10.06,1
6.716,-9.45,-9.45,1
6.736,-8.83,-8.83,1
6.756,-8.35,-8.1,1
6.776,-7.86,-7.49,1
6.796,-7,-6.88,1
6.816,-6.39,-6.51,1
6.836,-6.02,-6.27,1
6.856,-5.66,-6.02,1
6.876,-5.29,-5.78,1
6.896,-5.05,-5.66,1
6.897,-4.92,-5.54,1
6.917,-4.8,-5.41,1
6.937,-4.68,-5.41,1
6.957,-4.56,-5.29,1
6.977,-4.68,-5.29,1
6.997,-4.68,-5.29,1
7.017,-4.44,-5.29,0
7.037,-4.44,-5.29,0
7.057,-4.31,-5.17,0
7.077,-4.19,-5.17,0
7.097,-4.19,-5.17,0
7.117,-4.19,-5.05,0
7.137,-4.31,-5.05,0
7.157,-4.31,-5.05,0
7.177,-4.19,-5.05,0
7.197,-4.19,-5.05,0
7.217,-4.31,-5.05,0
7.237,-4.19,-5.05,0
7.257,-4.07,-5.05,0
7.277,-4.07,-5.05,0
7.298,-4.19,-5.05,0
7.318,-4.31,-5.05,0
7.338,-4.19,-4.92,0
7.358,-4.19,-4.92,0
7.378,-4.19,-4.92,0
7.398,-4.07,-4.92,0
7.418,-4.07,-4.92,0
7.438,-4.07,-4.92,0
7.458,-4.19,-4.92,0
7.478,-4.19,-4.92,0
7.498,-4.19,-5.05,0
7.518,-4.19,-5.05,0
7.538,-4.19,-5.05,0
7.558,-4.07,-5.05,0
7.578,-3.95,-4.92,0
7.598,-3.95,-4.92,0
7.618,-3.95,-4.8,0
7.638,-3.95,-4.8,0
7.658,-4.07,-4.8,0
7.678,-3.82,-4.8,0
7.698,-3.95,-4.8,0
7.718,-3.82,-4.8,0
7.738,-3.95,-4.92,0
7.758,-4.07,-4.92,0
7.778,-4.8,-5.66,0
7.798,-5.9,-6.51,0
7.818,-6.51,-7.12,0
7.838,-6.88,-7.86,0
7.858,-7.25,-8.83,0
7.878,-8.1,-9.32,0
7.898,-8.96,-9.69,0
7.918,-9.45,-9.69,0
7.938,-9.57,-9.81,0
7.958,-9.69,-9.93,0
7.978,-9.81,-9.93,0
7.998,-9.81,-9.93,0
8.018,-9.93,-9.93,0
8.038,-9.93,-9.93,0
8.058,-9.93,-9.93,0
8.078,-9.93,-9.93,0
8.098,-9.93,-10.06,0
8.099,-9.93,-10.06,0
8.119,-10.06,-10.06,0
8.139,-10.06,-10.06,0
8.159,-10.06,-10.06,0
8.179,-10.06,-10.06,0
8.199,-10.06,-10.06,0
8.219,-10.06,-10.06,0
8.239,-10.06,-10.06,0
8.259,-10.06,-10.06,0
8.281,-10.06,-10.06,0
8.299,-10.18,-10.06,0
8.32,-10.06,-10.18,0
8.339,-10.06,-10.06,0
8.359,-10.06,-10.18,0
8.379,-10.06,-10.18,0
8.399,-10.06,-10.18,0
8.419,-10.18,-10.06,0
8.44,-10.18,-10.18,0
8.459,-10.18,-10.06,0
8.479,-10.18,-10.18,0
8.499,-10.18,-10.18,0
8.5,-10.18,-10.18,1
8.52,-10.18,-10.18,1
8.54,-10.18,-10.18,1
8.56,-10.18,-10.18,1
8.58,-10.18,-10.18,1
8.6,-10.18,-10.18,1
8.62,-10.18,-10.18,1
8.64,-10.18,-10.06,1
8.66,-10.18,-10.18,1
8.68,-10.18,-10.18,1
8.7,-10.3,-10.18,1
8.72,-10.3,-10.18,1
8.74,-10.18,-10.18,1
8.76,-10.06,-10.06,1
8.78,-9.45,-9.45,1
8.8,-8.83,-8.83,1
8.821,-8.35,-8.1,1
8.84,-7.86,-7.49,1
8.86,-7,-6.88,1
8.88,-6.39,-6.51,1
8.9,-6.02,-6.27,1
8.9,-5.54,-5.9,1
8.92,-5.29,-5.78,1
8.94,-5.05,-5.66,1
8.961,-4.92,-5.54,1
8.98,-4.8,-5.41,1
9,-4.68,-5.41,1
9.02,-4.68,-5.29,1
9.04,-4.68,-5.29,1
9.06,-4.68,-5.29,0
9.08,-4.44,-5.29,0
9.1,-4.44,-5.29,0
9.12,-4.31,-5.29,0
9.14,-4.19,-5.17,0
9.16,-4.19,-5.17,0
9.18,-4.31,-5.05,0
9.2,-4.31,-5.05,0
9.22,-4.44,-5.05,0
9.24,-4.19,-5.05,0
9.26,-4.31,-5.05,0
9.28,-4.31,-5.05,0
9.301,-4.19,-5.05,0
9.321,-4.07,-5.05,0
9.341,-4.19,-5.05,0
9.361,-4.31,-5.05,0
9.381,-4.31,-4.92,0
9.401,-4.19,-4.92,0
9.421,-4.19,-4.92,0
9.441,-4.07,-4.92,0
9.461,-4.07,-4.92,0
9.481,-4.07,-4.92,0
9.501,-4.07,-4.8,0
9.521,-4.19,-4.92,0
9.541,-4.19,-4.92,0
9.561,-4.07,-4.92,0
9.581,-4.07,-4.92,0
9.601,-4.07,-5.05,0
9.621,-3.95,-4.92,0
9.641,-3.82,-4.8,0
9.661,-3.95,-4.8,0
9.681,-3.95,-4.68,0
9.701,-3.95,-4.68,0
9.701,-3.82,-4.68,0
9.721,-3.82,-4.68,0
9.741,-3.82,-4.8,0
9.761,-3.95,-4.8,0
9.781,-3.95,-4.8,0
9.801,-4.44,-5.29,0
9.821,-5.66,-6.39,0
9.841,-6.51,-7,0
9.861,-7,-7.73,0
9.881,-7.25,-8.71,0
9.901,-8.1,-9.32,0
9.921,-9.08,-9.69,0
9.941,-9.57,-9.81,0
9.961,-9.69,-9.93,0
9.981,-9.81,-9.93,0
10.001,-9.93,-9.93,0
10.021,-9.93,-9.93,0
10.041,-9.93,-9.93,0
10.061,-9.93,-9.93,0
10.081,-10.06,-9.93,0
10.101,-10.06,-10.06,0
10.102,-10.06,-10.06,0
10.122,-10.06,-10.06,0
10.142,-10.06,-10.18,0
10.162,-10.06,-10.18,0
10.182,-10.06,-10.06,0
10.202,-10.06,-10.06,0
10.222,-10.06,-10.06,0
10.242,-10.06,-10.06,0
10.262,-10.06,-10.06,0
10.282,-10.18,-10.06,0
10.302,-10.18,-10.06,0
10.322,-10.06,-10.06,0
10.342,-10.06,-10.06,0
10.362,-10.06,-10.06,0
10.382,-10.06,-10.18,0
10.402,-10.06,-10.06,0
10.422,-10.18,-10.06,0
10.442,-10.06,-10.06,0
10.462,-10.18,-10.18,0
10.482,-10.18,-10.06,0
10.502,-10.18,-10.18,0
10.503,-10.18,-10.18,1
10.523,-10.18,-10.18,1
10.543,-10.18,-10.18,1
10.563,-10.18,-10.18,1
10.583,-10.18,-10.18,1
10.603,-10.18,-10.18,1
10.623,-10.18,-10.18,1
10.643,-10.18,-10.18,1
10.663,-10.18,-10.18,1
10.683,-10.3,-10.18,1
10.703,-10.3,-10.18,1
10.723,-10.3,-10.18,1
10.743,-10.06,-9.93,1
10.763,-9.32,-9.32,1
10.783,-8.71,-8.71,1
10.803,-8.35,-7.86,1
10.823,-7.61,-7.25,1
10.843,-6.76,-6.76,1
10.863,-6.27,-6.39,1
10.883,-5.78,-6.15,1
10.903,-5.41,-5.9,1
10.904,-5.17,-5.66,1
10.924,-5.05,-5.54,1
10.944,-4.8,-5.41,1
10.964,-4.68,-5.41,1
10.984,-4.68,-5.29,1
11.004,-4.68,-5.29,1
11.024,-4.68,-5.29,1
11.044,-4.44,-5.29,0
11.064,-4.31,-5.29,0
11.084,-4.31,-5.29,0
11.104,-4.19,-5.17,0
11.124,-4.19,-5.17,0
11.144,-4.19,-5.17,0
11.164,-4.31,-5.05,0
11.184,-4.31,-5.05,0
11.204,-4.19,-5.05,0
11.224,-4.19,-5.05,0
11.244,-4.31,-5.05,0
11.264,-4.19,-5.05,0
11.284,-4.07,-5.05,0
11.304,-4.19,-5.05,0
11.305,-4.31,-4.92,0
11.325,-4.19,-4.92,0
11.345,-4.07,-4.92,0
11.365,-4.19,-4.8,0
11.385,-4.19,-4.92,0
11.405,-4.19,-4.8,0
11.425,-4.07,-4.8,0
11.445,-4.31,-4.8,0
11.465,-4.19,-4.92,0
11.485,-4.19,-4.92,0
11.505,-4.19,-4.92,0
11.525,-4.19,-5.05,0
11.545,-4.07,-4.92,0
11.565,-3.95,-4.8,0
11.585,-3.95,-4.8,0
11.605,-3.95,-4.8,0
11.625,-4.07,-4.8,0
11.645,-3.95,-4.8,0
11.665,-3.95,-4.8,0
11.685,-3.95,-4.8,0
11.705,-3.95,-4.8,0
11.705,-3.95,-4.92,0
11.725,-4.44,-5.41,0
11.745,-5.66,-6.39,0
11.765,-6.39,-7,0
11.785,-6.88,-7.86,0
11.805,-7.25,-8.96,0
11.825,-8.1,-9.45,0
11.845,-8.96,-9.69,0
11.865,-9.45,-9.81,0
11.885,-9.57,-9.81,0
11.905,-9.69,-9.93,0
11.925,-9.81,-9.93,0
11.945,-9.81,-9.93,0
11.965,-9.81,-9.93,0
11.985,-9.93,-10.06,0
12.005,-9.93,-9.93,0
12.025,-10.06,-9.93,0
12.045,-10.06,-10.06,0
12.065,-10.06,-10.06,0
12.085,-10.18,-10.06,0
12.106,-10.06,-10.06,0
12.126,-10.06,-10.06,0
12.146,-10.06,-10.06,0
12.166,-10.18,-10.06,0
12.186,-10.06,-10.06,0
12.206,-10.06,-10.06,0
12.226,-10.18,-10.06,0
12.246,-10.18,-10.06,0
12.266,-10.18,-10.06,0
12.286,-10.06,-10.06,0
12.306,-10.18,-10.06,0
12.326,-10.06,-10.06,0
12.346,-10.18,-10.06,0
12.366,-10.18,-10.06,0
12.386,-10.18,-10.18,0
12.406,-10.18,-10.18,0
12.426,-10.18,-10.18,0
12.446,-10.18,-10.18,0
12.466,-10.18,-10.18,1
12.486,-10.18,-10.18,1
12.506,-10.18,-10.18,1
12.526,-10.18,-10.18,1
12.546,-10.18,-10.18,1
12.566,-10.18,-10.18,1
12.586,-10.18,-10.18,1
12.606,-10.18,-10.18,1
12.626,-10.18,-10.18,1
12.646,-10.18,-10.18,1
12.666,-10.18,-10.18,1
12.686,-10.18,-10.18,1
12.706,-9.93,-9.93,1
12.726,-9.32,-9.32,1
12.746,-8.71,-8.71,1
12.766,-8.22,-7.98,1
12.786,-7.73,-7.37,1
12.806,-6.88,-6.76,1
12.826,-6.27,-6.39,1
12.846,-5.78,-6.15,1
12.866,-5.41,-5.9,1
12.886,-5.17,-5.66,1
12.907,-5.05,-5.54,1
12.927,-4.8,-5.41,1
12.947,-4.68,-5.41,1
12.967,-4.68,-5.29,1
12.987,-4.8,-5.29,1
13.007,-4.68,-5.17,1
13.027,-4.56,-5.17,0
13.047,-4.44,-5.17,0
13.067,-4.31,-5.17,0
13.087,-4.19,-5.05,0
13.107,-4.19,-5.05,0
13.127,-4.19,-5.05,0
13.147,-4.19,-4.92,0
13.167,-4.19,-4.92,0
13.187,-4.19,-4.8,0
13.207,-4.19,-4.92,0
13.227,-4.19,-4.8,0
13.247,-3.95,-4.8,0
13.267,-3.95,-4.8,0
13.287,-4.07,-4.8,0
13.307,-4.07,-4.8,0
13.307,-3.95,-4.8,0
13.327,-3.82,-4.8,0
13.347,-3.95,-4.68,0
13.367,-3.82,-4.68,0
13.387,-3.82,-4.68,0
13.407,-3.82,-4.68,0
13.427,-3.95,-4.68,0
13.447,-3.95,-4.68,0
13.467,-3.82,-4.8,0
13.487,-3.95,-4.8,0
13.507,-3.95,-4.8,0
13.527,-3.95,-4.8,0
13.547,-3.82,-4.68,0
13.567,-3.82,-4.68,0
13.587,-3.82,-4.68,0
13.607,-3.95,-4.68,0
13.627,-3.82,-4.56,0
13.647,-3.82,-4.56,0
13.667,-3.82,-4.56,0
13.687,-3.82,-4.68,0
13.707,-3.82,-4.68,0
13.708,-4.31,-5.17,0
13.728,-5.54,-6.15,0
13.748,-6.39,-6.88,0
13.768,-6.88,-7.73,0
13.788,-7.25,-8.83,0
13.808,-8.1,-9.45,0
13.829,-9.08,-9.69,0
13.848,-9.57,-9.81,0
13.868,-9.81,-9.93,0
13.888,-9.81,-9.93,0
13.908,-9.93,-9.93,0
13.928,-9.93,-10.06,0
13.948,-9.93,-10.06,0
13.968,-10.06,-10.06,0
13.988,-10.06,-10.06,0
14.008,-10.06,-10.06,0
14.028,-10.06,-10.18,0
14.048,-10.06,-10.18,0
14.068,-10.06,-10.18,0
14.088,-10.06,-10.18,0
14.108,-10.06,-10.18,0
14.128,-10.18,-10.18,0
14.148,-10.18,-10.18,0
14.168,-10.06,-10.18,0
14.188,-10.18,-10.18,0
14.208,-10.18,-10.18,0
14.228,-10.18,-10.18,0
14.248,-10.18,-10.18,0
14.268,-10.18,-10.3,0
14.288,-10.18,-10.3,0
14.308,-10.18,-10.3,0
14.328,-10.18,-10.3,0
14.348,-10.3,-10.3,0
14.368,-10.3,-10.3,0
14.388,-10.18,-10.3,0
14.408,-10.3,-10.3,0
14.428,-10.3,-10.3,0
14.448,-10.3,-10.3,1
14.468,-10.18,-10.3,1
14.488,-10.3,-10.3,1
14.509,-10.18,-10.3,1
14.529,-10.18,-10.3,1
14.549,-10.3,-10.3,1
14.569,-10.3,-10.3,1
14.589,-10.3,-10.3,1
14.609,-10.3,-10.3,1
14.629,-10.3,-10.3,1
14.649,-10.3,-10.3,1
14.669,-10.3,-10.3,1
14.689,-9.93,-9.93,1
14.709,-9.32,-9.32,1
14.729,-8.71,-8.59,1
14.749,-8.22,-7.86,1
14.769,-7.49,-7.25,1
14.789,-6.76,-6.63,1
14.809,-6.02,-6.39,1
14.829,-5.66,-6.02,1
14.849,-5.29,-5.78,1
14.869,-5.05,-5.66,1
14.889,-4.92,-5.41,1
14.909,-4.68,-5.29,1
14.91,-4.56,-5.29,1
14.93,-4.56,-5.17,1
14.95,-4.68,-5.17,1
14.97,-4.56,-5.17,0
14.99,-4.31,-5.05,0
15.01,-4.31,-5.05,0
15.03,-4.07,-5.05,0
15.05,-4.07,-4.92,0
15.07,-4.07,-4.92,0
15.09,-4.19,-4.92,0
15.11,-4.19,-4.92,0
15.13,-4.07,-4.8,0
15.15,-4.07,-4.8,0
15.17,-4.19,-4.8,0
15.19,-4.07,-4.8,0
15.21,-3.95,-4.8,0
15.23,-4.07,-4.92,0
15.25,-4.07,-4.8,0
15.27,-4.07,-4.8,0
15.29,-3.95,-4.8,0
15.31,-3.95,-4.8,0
15.311,-3.95,-4.8,0
15.331,-3.95,-4.68,0
15.351,-3.82,-4.8,0
15.371,-3.95,-4.8,0
15.391,-4.07,-4.8,0
15.411,-3.95,-4.68,0
15.431,-3.95,-4.8,0
15.451,-3.95,-4.92,0
15.471,-3.95,-4.8,0
15.491,-3.82,-4.8,0
15.511,-3.7,-4.8,0
15.531,-3.7,-4.68,0
15.551,-3.7,-4.68,0
15.571,-3.82,-4.56,0
15.591,-3.7,-4.56,0
15.611,-3.7,-4.56,0
15.631,-3.7,-4.56,0
15.651,-3.7,-4.68,0
15.671,-3.82,-4.68,0
15.691,-4.56,-5.41,0
15.711,-5.78,-6.39,0
15.731,-6.51,-7,0
15.751,-6.88,-7.98,0
15.771,-7.49,-8.96,0
15.791,-8.47,-9.45,0
15.811,-9.2,-9.69,0
15.831,-9.57,-9.81,0
15.851,-9.81,-9.81,0
15.871,-9.81,-9.81,0
15.891,-9.93,-9.93,0
15.911,-10.06,-9.93,0
15.931,-10.06,-10.06,0
15.951,-10.06,-10.06,0
15.971,-10.18,-10.06,0
15.991,-10.06,-10.06,0
16.011,-10.06,-10.18,0
16.031,-10.18,-10.18,0
16.051,-10.18,-10.18,0
16.071,-10.18,-10.18,0
16.091,-10.18,-10.18,0
16.111,-10.18,-10.18,0
16.131,-10.06,-10.18,0
16.151,-10.06,-10.18,0
16.171,-10.18,-10.18,0
16.191,-10.18,-10.18,0
16.211,-10.18,-10.18,0
16.231,-10.06,-10.18,0
16.251,-10.18,-10.18,0
16.271,-10.06,-10.18,0
16.291,-10.18,-10.18,0
16.311,-10.18,-10.3,0
16.331,-10.18,-10.18,0
16.351,-10.18,-10.18,0
16.371,-10.18,-10.18,0
16.391,-10.18,-10.18,0
16.411,-10.18,-10.3,1
16.431,-10.18,-10.18,1
16.451,-10.18,-10.3,1
16.471,-10.18,-10.3,1
16.491,-10.18,-10.3,1
16.512,-10.18,-10.3,1
16.532,-10.18,-10.3,1
16.552,-10.3,-10.3,1
16.572,-10.18,-10.3,1
16.592,-10.3,-10.3,1
16.612,-10.3,-10.3,1
16.632,-10.3,-10.3,1
16.652,-10.3,-10.3,1
16.672,-9.69,-9.69,1
16.692,-9.08,-9.08,1
16.712,-8.59,-8.35,1
16.732,-8.1,-7.61,1
16.752,-7.25,-7,1
16.772,-6.51,-6.51,1
16.792,-6.02,-6.27,1
16.812,-5.66,-6.02,1
16.832,-5.29,-5.78,1
16.852,-5.05,-5.54,1
16.872,-4.92,-5.41,1
16.892,-4.68,-5.29,1
16.912,-4.56,-5.29,1
16.912,-4.56,-5.17,1
16.932,-4.56,-5.17,1
16.953,-4.44,-5.17,0
16.972,-4.31,-5.17,0
16.992,-4.19,-5.17,0
17.012,-4.07,-5.05,0
17.032,-3.95,-5.05,0
17.052,-4.07,-4.92,0
17.072,-4.07,-4.92,0
17.092,-4.07,-4.92,0
17.112,-4.07,-4.92,0
17.132,-4.07,-4.92,0
17.152,-4.07,-4.92,0
17.172,-4.07,-4.92,0
17.192,-3.95,-4.92,0
17.212,-3.95,-4.92,0
17.232,-4.07,-4.92,0
17.252,-4.19,-4.92,0
17.272,-3.95,-4.8,0
17.292,-4.07,-4.8,0
17.313,-3.95,-4.8,0
17.333,-3.95,-4.8,0
17.353,-3.95,-4.8,0
17.373,-4.07,-4.8,0
17.393,-4.07,-4.8,0
17.413,-4.07,-4.8,0
17.433,-4.07,-4.8,0
17.453,-4.07,-4.92,0
17.473,-4.07,-4.8,0
17.493,-3.95,-4.8,0
17.513,-3.82,-4.68,0
17.533,-3.82,-4.68,0
17.553,-3.95,-4.56,0
17.573,-3.95,-4.56,0
17.593,-3.82,-4.56,0
17.613,-3.82,-4.56,0
17.633,-3.7,-4.56,0
17.653,-3.82,-4.68,0
17.673,-3.82,-4.68,0
17.693,-4.92,-5.78,0
17.713,-6.02,-6.63,0
17.713,-6.63,-7.25,0
17.733,-7,-8.35,0
17.753,-7.61,-9.2,0
17.773,-8.59,-9.57,0
17.793,-9.2,-9.69,0
17.813,-9.57,-9.81,0
17.833,-9.69,-9.93,0
17.853,-9.81,-10.06,0
17.873,-9.93,-10.06,0
17.893,-9.93,-10.06,0
17.913,-9.93,-10.06,0
17.933,-9.93,-10.06,0
17.953,-10.06,-10.06,0
17.973,-10.06,-10.18,0
17.993,-10.06,-10.18,0
18.013,-10.18,-10.18,0
18.033,-10.18,-10.18,0
18.053,-10.18,-10.18,0
18.073,-10.18,-10.18,0
18.093,-10.18,-10.18,0
18.114,-10.18,-10.18,0
18.134,-10.18,-10.18,0
18.154,-10.18,-10.18,0
18.174,-10.18,-10.18,0
18.194,-10.18,-10.18,0
18.214,-10.18,-10.18,0
18.234,-10.18,-10.18,0
18.254,-10.18,-10.18,0
18.274,-10.18,-10.18,0
18.294,-10.18,-10.18,0
18.314,-10.18,-10.18,0
18.334,-10.18,-10.18,0
18.354,-10.18,-10.18,0
18.374,-10.3,-10.18,0
18.394,-10.18,-10.18,1
18.414,-10.18,-10.18,1
18.434,-10.18,-10.18,1
18.454,-10.18,-10.3,1
18.474,-10.18,-10.18,1
18.494,-10.18,-10.18,1
18.514,-10.3,-10.18,1
18.534,-10.18,-10.18,1
18.554,-10.3,-10.18,1
18.574,-10.3,-10.3,1
18.594,-10.3,-10.3,1
18.614,-10.3,-10.3,1
18.634,-10.18,-10.18,1
18.654,-9.45,-9.45,1
18.674,-8.83,-8.96,1
18.694,-8.47,-8.1,1
18.714,-7.86,-7.37,1
18.734,-7,-6.88,1
18.754,-6.39,-6.51,1
18.774,-5.9,-6.15,1
18.794,-5.41,-5.9,1
18.814,-5.17,-5.66,1
18.834,-5.05,-5.54,1
18.854,-4.8,-5.41,1
18.874,-4.68,-5.41,1
18.894,-4.68,-5.29,1
18.914,-4.68,-5.17,1
18.934,-4.56,-5.29,1
18.954,-4.44,-5.17,0
18.974,-4.31,-5.17,0
18.994,-4.19,-5.17,0
19.014,-4.19,-5.05,0
19.034,-4.07,-5.05,0
19.054,-4.19,-5.05,0
19.074,-4.19,-4.92,0
19.094,-4.19,-4.92,0
19.114,-4.07,-4.92,0
19.134,-4.19,-4.92,0
19.154,-4.19,-4.92,0
19.174,-4.07,-4.92,0
19.194,-3.95,-4.92,0
19.214,-4.07,-4.92,0
19.234,-4.07,-4.92,0
19.254,-4.07,-4.92,0
19.274,-3.95,-4.8,0
19.294,-3.95,-4.8,0
19.315,-3.95,-4.8,0
19.335,-3.95,-4.8,0
19.355,-3.95,-4.68,0
19.375,-4.07,-4.8,0
19.395,-4.07,-4.8,0
19.415,-3.95,-4.8,0
19.435,-3.95,-4.92,0
19.455,-4.07,-4.92,0
19.475,-3.95,-4.8,0
19.495,-3.82,-4.8,0
19.515,-3.82,-4.8,0
19.535,-3.82,-4.8,0
19.555,-3.95,-4.68,0
19.575,-3.95,-4.68,0
19.595,-3.95,-4.68,0
19.615,-3.82,-4.68,0
19.635,-3.82,-4.8,0
19.655,-3.95,-4.8,0
19.675,-4.19,-5.17,0
19.695,-5.41,-6.15,0
19.715,-6.39,-6.88,0
19.715,-6.88,-7.61,0
19.735,-7.25,-8.71,0
19.755,-8.1,-9.32,0
19.775,-8.96,-9.69,0
19.795,-9.45,-9.69,0
19.815,-9.69,-9.93,0
19.835,-9.81,-9.93,0
19.855,-9.93,-9.93,0
19.875,-9.93,-9.93,0
19.895,-9.93,-9.93,0
19.915,-9.93,-9.93,0
19.935,-10.06,-10.06,0
19.955,-10.06,-10.06,0
19.975,-10.06,-10.06,0
19.995,-10.06,-10.06,0
20.015,-10.18,-10.06,0
20.035,-10.18,-10.18,0
20.055,-10.06,-10.06,0
20.075,-10.06,-10.06,0
20.095,-10.18,-10.06,0
20.116,-10.06,-10.06,0
20.136,-10.18,-10.06,0
20.156,-10.18,-10.06,0
20.176,-10.18,-10.06,0
20.196,-10.18,-10.18,0
20.216,-10.18,-10.18,0
20.236,-10.18,-10.18,0
20.256,-10.18,-10.18,0
20.276,-10.18,-10.18,0
20.296,-10.18,-10.18,0
20.316,-10.3,-10.18,0
20.336,-10.3,-10.18,0
20.356,-10.3,-10.18,0
20.376,-10.3,-10.18,0
20.396,-10.18,-10.18,1
20.416,-10.18,-10.18,1
20.436,-10.3,-10.18,1
20.456,-10.3,-10.3,1
20.476,-10.18,-10.3,1
20.496,-10.18,-10.3,1
20.516,-10.3,-10.18,1
20.536,-10.18,-10.18,1
20.556,-10.3,-10.18,1
20.576,-10.3,-10.3,1
20.596,-10.3,-10.3,1
20.616,-10.3,-10.3,1
20.636,-10.06,-10.06,1
20.656,-9.45,-9.32,1
20.676,-8.83,-8.71,1
20.696,-8.35,-7.98,1
20.716,-7.73,-7.37,1
20.736,-6.88,-6.76,1
20.756,-6.27,-6.39,1
20.776,-5.78,-6.15,1
20.796,-5.41,-5.9,1
20.816,-5.17,-5.66,1
20.836,-4.92,-5.54,1
20.856,-4.8,-5.41,1
20.876,-4.56,-5.29,1
20.896,-4.56,-5.29,1
20.916,-4.68,-5.17,1
20.917,-4.68,-5.17,1
20.937,-4.44,-5.17,0
20.957,-4.31,-5.17,0
20.977,-4.19,-5.17,0
20.997,-4.07,-5.05,0
21.017,-4.07,-5.05,0
21.037,-4.19,-4.92,0
21.057,-4.31,-4.92,0
21.077,-4.19,-4.92,0
21.097,-4.19,-4.92,0
21.117,-4.19,-4.92,0
21.137,-4.19,-4.8,0
21.157,-4.07,-4.92,0
21.177,-4.07,-4.92,0
21.197,-4.07,-4.92,0
21.217,-4.19,-4.92,0
21.237,-4.07,-4.92,0
21.257,-3.95,-4.8,0
21.277,-4.07,-4.8,0
21.297,-3.95,-4.8,0
21.317,-3.95,-4.8,0
21.337,-3.95,-4.8,0
21.357,-4.07,-4.8,0
21.377,-4.07,-4.8,0
21.397,-4.07,-4.92,0
21.417,-3.95,-4.92,0
21.437,-4.07,-4.92,0
21.457,-3.95,-4.92,0
21.477,-3.82,-4.8,0
21.497,-3.82,-4.8,0
21.517,-3.82,-4.8,0
21.537,-3.82,-4.8,0
21.557,-3.82,-4.68,0
21.577,-3.7,-4.68,0
21.597,-3.7,-4.68,0
21.617,-3.7,-4.8,0
21.637,-3.7,-4.8,0
21.657,-4.31,-5.29,0
21.677,-5.54,-6.27,0
21.697,-6.39,-7,0
21.717,-6.88,-7.73,0
21.718,-7.25,-8.83,0
21.738,-8.1,-9.45,0
21.758,-9.08,-9.69,0
21.778,-9.57,-9.81,0
21.798,-9.69,-9.81,0
21.818,-9.81,-9.93,0
21.838,-9.93,-9.93,0
21.858,-9.93,-10.06,0
21.878,-10.06,-9.93,0
21.898,-10.06,-10.06,0
21.918,-10.18,-10.06,0
21.938,-10.06,-10.06,0
21.958,-10.18,-10.06,0
21.978,-10.18,-10.06,0
21.998,-10.18,-10.06,0
22.018,-10.18,-10.18,0
22.038,-10.18,-10.06,0
22.058,-10.18,-10.06,0
22.078,-10.18,-10.06,0
22.098,-10.18,-10.06,0
22.118,-10.18,-10.18,0
22.138,-10.18,-10.18,0
22.158,-10.18,-10.18,0
22.178,-10.18,-10.18,0
22.198,-10.18,-10.18,0
22.218,-10.18,-10.18,0
22.238,-10.18,-10.18,0
22.258,-10.18,-10.18,0
22.278,-10.18,-10.18,0
22.298,-10.18,-10.18,0
22.318,-10.18,-10.18,0
22.338,-10.18,-10.18,0
22.358,-10.18,-10.18,0
22.378,-10.18,-10.18,1
22.398,-10.18,-10.3,1
22.418,-10.18,-10.18,1
22.438,-10.18,-10.18,1
22.458,-10.18,-10.18,1
22.478,-10.3,-10.18,1
22.498,-10.3,-10.3,1
22.518,-10.3,-10.3,1
22.519,-10.3,-10.3,1
22.539,-10.3,-10.3,1
22.559,-10.3,-10.3,1
22.579,-10.3,-10.3,1
22.599,-9.93,-9.81,1
22.619,-9.2,-9.2,1
22.639,-8.71,-8.59,1
22.659,-8.22,-7.73,1
22.679,-7.49,-7.12,1
22.699,-6.76,-6.63,1
22.719,-6.15,-6.27,1
22.739,-5.66,-6.02,1
22.759,-5.41,-5.78,1
22.779,-5.17,-5.54,1
22.799,-4.92,-5.54,1
22.819,-4.68,-5.41,1
22.839,-4.56,-5.29,1
22.859,-4.68,-5.29,1
22.879,-4.68,-5.17,1
22.899,-4.56,-5.17,0
22.919,-4.31,-5.17,0
22.919,-4.31,-5.17,0
22.939,-4.19,-5.17,0
22.959,-4.07,-5.05,0
22.979,-4.07,-5.05,0
22.999,-4.19,-5.05,0
23.019,-4.07,-4.92,0
23.039,-4.07,-4.92,0
23.059,-4.07,-4.92,0
23.079,-4.07,-4.92,0
23.099,-4.07,-4.92,0
23.119,-3.95,-4.92,0
23.139,-3.95,-4.92,0
23.159,-4.07,-4.92,0
23.179,-4.07,-4.92,0
23.199,-3.95,-4.8,0
23.219,-3.95,-4.8,0
23.239,-3.95,-4.8,0
23.259,-3.95,-4.8,0
23.279,-3.82,-4.8,0
23.299,-3.95,-4.8,0
23.319,-4.07,-4.8,0
23.32,-3.95,-4.8,0
23.34,-3.95,-4.8,0
23.36,-3.95,-4.92,0
23.38,-4.07,-4.92,0
23.4,-3.95,-4.8,0
23.42,-3.82,-4.68,0
23.44,-3.82,-4.68,0
23.46,-3.82,-4.56,0
23.48,-3.82,-4.56,0
23.5,-3.82,-4.56,0
23.52,-3.82,-4.56,0
23.54,-3.82,-4.56,0
23.56,-3.82,-4.56,0
23.58,-3.82,-4.68,0
23.6,-4.56,-5.41,0
23.62,-5.78,-6.39,0
23.64,-6.51,-7,0
23.66,-6.88,-7.98,0
23.68,-7.49,-8.96,0
23.7,-8.35,-9.45,0
23.72,-9.2,-9.69,0
23.74,-9.57,-9.81,0
23.76,-9.69,-9.81,0
23.78,-9.81,-9.93,0
23.8,-9.93,-9.93,0
23.82,-9.93,-10.06,0
23.84,-9.93,-10.06,0
23.86,-10.06,-10.06,0
23.88,-10.06,-10.06,0
23.9,-10.06,-10.18,0
23.92,-10.18,-10.18,0
23.94,-10.18,-10.18,0
23.96,-10.18,-10.18,0
23.98,-10.18,-10.18,0
24,-10.18,-10.18,0
24.02,-10.3,-10.18,0
24.04,-10.18,-10.18,0
24.06,-10.3,-10.18,0
24.08,-10.3,-10.3,0
24.1,-10.3,-10.3,0
24.12,-10.3,-10.3,0
24.121,-10.3,-10.3,0
24.141,-10.3,-10.3,0
24.161,-10.18,-10.3,0
24.181,-10.18,-10.3,0
24.201,-10.3,-10.3,0
24.221,-10.3,-10.3,0
24.241,-10.3,-10.3,0
24.261,-10.3,-10.3,0
24.281,-10.3,-10.3,0
24.301,-10.3,-10.3,1
24.321,-10.3,-10.3,1
24.341,-10.3,-10.3,1
24.361,-10.3,-10.3,1
24.381,-10.3,-10.3,1
24.401,-10.3,-10.3,1
24.421,-10.3,-10.3,1
24.441,-10.3,-10.3,1
24.461,-10.3,-10.3,1
24.481,-10.3,-10.3,1
24.501,-10.3,-10.3,1
24.521,-10.3,-10.3,1
24.522,-10.3,-10.3,1
24.542,-9.81,-9.81,1
24.562,-9.2,-9.2,1
24.582,-8.59,-8.47,1
24.602,-8.1,-7.61,1
24.622,-7.37,-7,1
24.642,-6.51,-6.63,1
24.662,-6.02,-6.27,1
24.682,-5.66,-6.02,1
24.702,-5.29,-5.78,1
24.722,-5.05,-5.54,1
24.742,-4.8,-5.41,1
24.762,-4.68,-5.29,1
24.782,-4.56,-5.17,1
24.802,-4.56,-5.17,1
24.822,-4.56,-5.17,1
24.842,-4.44,-5.17,0
24.862,-4.31,-5.05,0
24.882,-4.19,-5.05,0
24.902,-4.19,-5.05,0
24.922,-3.95,-4.92,0
24.922,-3.95,-4.8,0
24.942,-4.07,-4.8,0
24.962,-4.07,-4.8,0
24.982,-3.95,-4.8,0
25.002,-3.95,-4.8,0
25.022,-4.07,-4.8,0
25.042,-3.95,-4.8,0
25.062,-3.82,-4.8,0
25.082,-3.82,-4.8,0
25.102,-3.95,-4.8,0
25.122,-3.95,-4.68,0
25.142,-3.82,-4.68,0
25.162,-3.82,-4.56,0
25.182,-3.82,-4.68,0
25.202,-3.82,-4.56,0
25.222,-3.7,-4.56,0
25.242,-3.82,-4.56,0
25.262,-3.95,-4.68,0
25.282,-3.82,-4.68,0
25.302,-3.82,-4.68,0
25.323,-3.82,-4.8,0
25.343,-3.82,-4.68,0
25.363,-3.7,-4.68,0
25.383,-3.7,-4.56,0
25.403,-3.7,-4.56,0
25.423,-3.7,-4.56,0
25.443,-3.7,-4.44,0
25.463,-3.7,-4.44,0
25.483,-3.7,-4.44,0
25.503,-3.7,-4.44,0
25.523,-3.7,-4.56,0
25.543,-3.82,-4.56,0
25.563,-4.92,-5.66,0
25.583,-6.02,-6.51,0
25.603,-6.63,-7.25,0
25.623,-7.12,-8.35,0
25.643,-7.86,-9.2,0
25.663,-8.71,-9.57,0
25.683,-9.45,-9.81,0
25.703,-9.69,-9.93,0
25.723,-9.81,-9.93,0
25.743,-9.93,-10.06,0
25.763,-10.06,-10.06,0
25.783,-10.06,-10.06,0
25.803,-10.06,-10.06,0
25.823,-10.06,-10.18,0
25.843,-10.18,-10.18,0
25.863,-10.18,-10.18,0
25.883,-10.18,-10.18,0
25.903,-10.18,-10.18,0
25.923,-10.18,-10.3,0
25.943,-10.18,-10.18,0
25.963,-10.18,-10.18,0
25.983,-10.18,-10.18,0
26.003,-10.18,-10.18,0
26.023,-10.18,-10.18,0
26.043,-10.3,-10.18,0
26.063,-10.18,-10.18,0
26.083,-10.18,-10.18,0
26.103,-10.18,-10.3,0
26.123,-10.18,-10.3,0
26.124,-10.18,-10.3,0
26.144,-10.18,-10.3,0
26.164,-10.3,-10.3,0
26.184,-10.3,-10.3,0
26.204,-10.3,-10.3,0
26.224,-10.3,-10.3,0
26.244,-10.3,-10.18,0
26.264,-10.3,-10.3,1
26.284,-10.3,-10.3,1
26.304,-10.3,-10.3,1
26.324,-10.3,-10.3,1
26.344,-10.3,-10.3,1
26.364,-10.3,-10.3,1
26.384,-10.3,-10.3,1
26.404,-10.3,-10.3,1
26.424,-10.3,-10.3,1
26.444,-10.42,-10.3,1
26.464,-10.42,-10.3,1
26.484,-10.3,-10.3,1
26.504,-10.18,-10.06,1
26.524,-9.45,-9.45,1
26.544,-8.83,-8.83,1
26.564,-8.47,-8.1,1
26.584,-7.86,-7.37,1
26.604,-6.88,-6.76,1
26.624,-6.27,-6.39,1
26.644,-5.9,-6.15,1
26.664,-5.41,-5.9,1
26.684,-5.17,-5.66,1
26.704,-4.92,-5.54,1
26.724,-4.68,-5.41,1
26.744,-4.56,-5.29,1
26.764,-4.56,-5.29,1
26.784,-4.56,-5.17,1
26.804,-4.56,-5.17,1
26.824,-4.44,-5.05,0
26.844,-4.31,-5.05,0
26.864,-4.19,-5.05,0
26.884,-4.07,-5.05,0
26.904,-3.95,-4.92,0
26.925,-4.07,-4.92,0
26.945,-4.19,-4.92,0
26.965,-4.19,-4.8,0
26.985,-4.07,-4.8,0
27.005,-4.07,-4.8,0
27.025,-4.07,-4.8,0
27.045,-4.07,-4.92,0
27.065,-3.95,-4.92,0
27.085,-4.07,-4.8,0
27.105,-4.19,-4.8,0
27.125,-4.19,-4.8,0
27.145,-4.07,-4.8,0
27.165,-3.95,-4.68,0
27.185,-3.95,-4.68,0
27.205,-3.95,-4.68,0
27.225,-3.95,-4.68,0
27.245,-4.07,-4.68,0
27.265,-4.07,-4.68,0
27.285,-3.95,-4.68,0
27.305,-3.95,-4.8,0
27.325,-4.07,-4.8,0
27.325,-3.95,-4.8,0
27.345,-3.7,-4.8,0
27.365,-3.82,-4.68,0
27.385,-3.82,-4.68,0
27.405,-3.82,-4.68,0
27.425,-3.82,-4.68,0
27.445,-3.7,-4.56,0
27.465,-3.7,-4.68,0
27.485,-3.7,-4.68,0
27.505,-3.7,-4.68,0
27.525,-4.19,-5.17,0
27.545,-5.41,-6.27,0
27.565,-6.27,-7,0
27.585,-6.88,-7.86,0
27.605,-7.25,-8.83,0
27.625,-8.22,-9.45,0
27.645,-8.96,-9.69,0
27.665,-9.45,-9.81,0
27.685,-9.69,-9.93,0
27.705,-9.81,-9.93,0
27.725,-9.93,-9.93,0
27.726,-10.06,-10.06,0
27.746,-10.06,-10.06,0
27.766,-10.06,-10.06,0
27.786,-10.18,-10.06,0
27.806,-10.18,-10.18,0
27.826,-10.18,-10.18,0
27.846,-10.18,-10.18,0
27.866,-10.18,-10.06,0
27.886,-10.18,-10.18,0
27.906,-10.18,-10.18,0
27.926,-10.3,-10.18,0
27.946,-10.18,-10.18,0
27.966,-10.18,-10.18,0
27.986,-10.3,-10.18,0
28.006,-10.3,-10.18,0
28.026,-10.18,-10.18,0
28.046,-10.18,-10.18,0
28.066,-10.3,-10.18,0
28.086,-10.18,-10.18,0
28.106,-10.18,-10.18,0
28.127,-10.3,-10.18,0
28.147,-10.3,-10.3,0
28.167,-10.18,-10.3,0
28.187,-10.3,-10.18,0
28.207,-10.3,-10.3,0
28.227,-10.3,-10.3,1
28.247,-10.3,-10.3,1
28.267,-10.3,-10.3,1
28.287,-10.3,-10.3,1
28.307,-10.18,-10.3,1
28.327,-10.3,-10.3,1
28.347,-10.3,-10.3,1
28.367,-10.3,-10.3,1
28.387,-10.3,-10.3,1
28.407,-10.3,-10.3,1
28.427,-10.42,-10.3,1
28.447,-10.3,-10.3,1
28.467,-10.42,-10.3,1
28.487,-9.93,-9.81,1
28.507,-9.2,-9.32,1
28.527,-8.71,-8.47,1
28.547,-8.22,-7.73,1
28.567,-7.49,-7.12,1
28.587,-6.76,-6.63,1
28.607,-6.15,-6.27,1
28.627,-5.66,-6.02,1
28.647,-5.29,-5.78,1
28.667,-5.05,-5.66,1
28.687,-4.92,-5.41,1
28.707,-4.68,-5.29,1
28.727,-4.56,-5.29,1
28.747,-4.68,-5.17,1
28.767,-4.56,-5.17,1
28.787,-4.44,-5.17,0
28.807,-4.31,-5.17,0
28.827,-4.31,-5.17,0
28.847,-4.19,-5.05,0
28.867,-4.07,-5.05,0
28.887,-3.95,-4.92,0
28.907,-4.07,-4.92,0
28.928,-4.07,-4.8,0
28.948,,,
28.968,-4.07,-4.8,0
28.988,-3.95,-4.8,0
29.008,-4.07,-4.8,0
29.028,-4.07,-4.8,0
29.048,-3.95,-4.8,0
29.068,-3.95,-4.8,0
29.088,-3.95,-4.8,0
29.108,-3.95,-4.8,0
29.128,-3.82,-4.8,0
29.148,-3.82,-4.8,0
29.168,-3.95,-4.8,0
29.188,-3.82,-4.8,0
29.213,-3.82,-4.68,0
29.234,-3.95,-4.8,0
29.254,,,
29.268,-4.07,-4.8,0
29.288,-3.95,-4.8,0
29.308,-3.95,-4.8,0
29.329,-3.95,-4.8,0
29.349,-4.07,-4.8,0
29.369,-3.95,-4.8,0
29.389,,,
29.409,-3.82,-4.8,0
29.429,-3.82,-4.68,0
29.449,-3.82,-4.68,0
29.469,-3.82,-4.68,0
29.489,-3.82,-4.68,0
29.509,-3.82,-4.68,0
29.529,-3.82,-4.68,0
29.549,-3.82,-4.68,0
29.569,-3.82,-4.68,0
29.589,-4.68,-5.54,0
29.61,-5.9,-6.51,0
29.629,-6.63,-7.12,0
29.649,,,
29.669,-7,-8.22,0
29.689,-7.61,-9.08,0
29.709,-8.59,-9.45,0
29.729,-9.32,-9.69,0
29.749,-9.57,-9.81,0
29.769,-9.81,-9.93,0
29.789,-9.81,-9.93,0
29.809,-9.93,-9.93,0
29.829,-9.93,-9.93,0
29.849,-9.93,-10.06,0
29.869,-9.93,-10.06,0
29.893,-10.06,-10.06,0
29.914,,,
29.929,-10.06,-10.06,0
29.949,-10.18,-10.06,0
29.969,-10.18,-10.18,0
29.989,-10.18,-10.18,0
30.012,-10.18,-10.18,0
30.036,-10.18,-10.18,0
30.061,-10.18,-10.18,0
30.081,,,
30.089,-10.18,-10.18,0
30.109,,,
30.129,-10.18,-10.18,0
30.131,-10.3,-10.18,0
30.155,-10.3,-10.18,0
30.179,-10.3,-10.18,0
30.204,-10.18,-10.18,0
30.224,,,
30.231,-10.3,-10.18,0
30.251,,,
30.271,-10.18,-10.18,0
30.291,-10.18,-10.18,0
30.311,-10.3,-10.18,0
30.331,-10.3,-10.18,0
30.351,-10.3,-10.3,0
30.372,-10.3,-10.18,0
30.393,,,
30.411,-10.3,-10.18,0
30.431,-10.3,-10.3,1
30.451,-10.3,-10.3,1
30.471,-10.3,-10.3,1
30.491,-10.3,-10.3,1
30.515,-10.3,-10.3,1
30.54,-10.3,-10.3,1
30.561,,,
30.58,-10.3,-10.3,1
30.6,-10.3,-10.3,1
30.62,-10.3,-10.3,1
30.64,-10.3,-10.3,1
30.66,-10.3,-10.3,1
30.683,-10.3,-10.3,1
30.704,,,
30.72,-10.3,-10.3,1
30.74,-9.81,-9.69,1
30.76,-9.08,-9.08,1
30.78,-8.59,-8.35,1
30.8,-8.1,-7.61,1
30.82,-7.25,-7,1
30.84,-6.63,-6.51,1
30.86,,,
30.88,-6.02,-6.27,1
30.9,-5.54,-6.02,1
30.92,-5.29,-5.78,1
30.941,-5.05,-5.54,1
30.961,-4.92,-5.41,1
30.981,-4.68,-5.29,1
31.001,-4.56,-5.29,1
31.021,-4.68,-5.17,1
31.041,-4.68,-5.17,1
31.061,-4.44,-5.17,0
31.081,-4.31,-5.05,0
31.101,-4.31,-5.05,0
31.122,,,
31.141,-4.19,-5.05,0
31.161,-4.07,-5.05,0
31.181,-4.07,-4.92,0
31.201,-4.19,-4.92,0
31.221,-4.19,-4.92,0
31.241,-4.07,-4.92,0
31.261,-4.07,-4.8,0
31.281,-4.19,-4.92,0
31.301,-4.07,-4.92,0
31.321,,,
31.341,-3.95,-4.92,0
31.343,-4.07,-4.92,0
31.363,-4.07,-4.92,0
31.388,-3.95,-4.92,0
31.408,-3.95,-4.8,0
31.429,-3.95,-4.8,0
31.453,-3.95,-4.8,0
31.474,-3.95,-4.8,0
31.494,-3.82,-4.68,0
31.519,-3.95,-4.8,0
31.539,-3.95,-4.8,0
31.56,-3.95,-4.8,0
31.584,-3.95,-4.8,0
31.605,-3.82,-4.8,0
31.626,,,
31.626,,,
31.643,-3.95,-4.8,0
31.663,-3.82,-4.8,0
31.683,-3.7,-4.68,0
31.703,-3.7,-4.68,0
31.723,-3.82,-4.68,0
31.743,-3.82,-4.56,0
31.757,,,
31.777,-3.7,-4.56,0
31.797,-3.82,-4.56,0
31.817,-3.82,-4.56,0
31.837,-3.82,-4.56,0
31.857,-3.7,-4.68,0
31.877,-4.92,-5.66,0
31.897,-6.02,-6.51,0
31.917,-6.76,-7.25,0
31.937,-7.12,-8.35,0
31.957,-7.86,-9.2,0
31.978,-8.83,-9.57,0
31.998,-9.45,-9.69,0
32.019,,,
32.037,-9.69,-9.81,0
32.057,-9.81,-9.93,0
32.077,-9.93,-9.93,0
32.097,-9.93,-10.06,0
32.117,-10.06,-10.06,0
32.137,-10.06,-10.06,0
32.158,-10.06,-10.06,0
32.182,-10.18,-10.06,0
32.203,,,
32.218,-10.18,-10.18,0
32.238,-10.18,-10.18,0
32.258,-10.3,-10.18,0
32.278,-10.18,-10.18,0
32.301,-10.18,-10.18,0
32.326,-10.18,-10.3,0
32.347,,,
32.358,-10.3,-10.18,0
32.378,-10.18,-10.18,0
32.398,-10.18,-10.18,0
32.42,-10.18,-10.18,0
32.445,-10.18,-10.18,0
32.469,-10.18,-10.18,0
32.494,-10.18,-10.18,0
32.515,,,
32.518,-10.18,-10.18,0
32.539,,,
32.559,-10.18,-10.18,0
32.579,-10.18,-10.18,0
32.599,-10.18,-10.18,0
32.619,-10.18,-10.18,0
32.639,-10.18,-10.18,0
32.662,-10.3,-10.18,0
32.682,,,
32.699,-10.3,-10.18,0
32.719,-10.3,-10.18,1
32.739,-10.3,-10.3,1
32.759,-10.3,-10.3,1
32.78,-10.3,-10.3,1
32.805,-10.3,-10.3,1
32.826,,,
32.839,-10.3,-10.3,1
32.859,-10.3,-10.3,1
32.879,-10.3,-10.3,1
32.899,-10.3,-10.3,1
32.924,-10.3,-10.3,1
32.948,-10.3,-10.3,1
32.973,-10.42,-10.3,1
32.994,,,
33.013,-10.18,-10.06,1
33.033,-9.45,-9.45,1
33.053,-8.96,-8.83,1
33.073,-8.47,-8.1,1
33.093,-7.86,-7.37,1
33.113,-7,-6.76,1
33.133,-6.39,-6.51,1
33.153,-5.9,-6.15,1
33.174,-5.41,-5.9,1
33.194,-5.17,-5.66,1
33.215,,,
33.233,-4.92,-5.54,1
33.253,-4.8,-5.41,1
33.273,-4.56,-5.29,1
33.293,-4.56,-5.29,1
33.313,-4.68,-5.17,1
33.333,-4.56,-5.17,1
33.353,-4.44,-5.17,0
33.373,-4.19,-5.17,0
33.391,-4.19,-5.17,0
33.411,,,
33.431,-4.07,-5.05,0
33.451,-3.95,-4.92,0
33.471,-4.07,-4.92,0
33.491,-4.07,-4.92,0
33.511,-4.07,-4.92,0
33.531,-4.07,-4.8,0
33.551,-4.07,-4.8,0
33.571,-4.07,-4.8,0
33.591,-4.07,-4.8,0
33.611,,,
33.631,-3.95,-4.8,0
33.651,-4.07,-4.8,0
33.671,-4.07,-4.8,0
33.691,-4.07,-4.8,0
33.711,-4.07,-4.8,0
33.731,-4.07,-4.8,0
33.751,-4.07,-4.68,0
33.771,-3.95,-4.8,0
33.791,-3.95,-4.68,0
33.804,,,
33.824,-4.07,-4.68,0
33.844,-4.07,-4.68,0
33.864,-3.95,-4.68,0
33.884,-3.95,-4.68,0
33.904,-4.07,-4.8,0
33.924,-4.07,-4.8,0
33.944,-3.82,-4.68,0
33.964,-3.82,-4.68,0
33.984,-3.82,-4.68,0
34.005,-3.82,-4.68,0
34.026,-3.82,-4.56,0
34.046,-3.82,-4.68,0
34.071,-3.7,-4.68,0
34.091,-3.82,-4.68,0
34.112,-3.82,-4.68,0
34.136,-4.07,-5.17,0
34.157,-5.41,-6.15,0
34.177,,,
34.184,-6.27,-6.88,0
34.204,-6.76,-7.73,0
34.223,-7.25,-8.83,0
34.243,,,
34.263,-8.1,-9.45,0
34.283,-8.96,-9.69,0
34.303,-9.45,-9.81,0
34.323,-9.69,-9.93,0
34.343,-9.81,-9.93,0
34.363,-9.93,-10.06,0
34.383,-9.93,-10.06,0
34.403,-10.06,-10.06,0
34.423,-10.06,-10.06,0
34.448,-10.18,-10.06,0
34.472,-10.18,-10.18,0
34.497,-10.18,-10.18,0
34.517,,,
34.523,-10.18,-10.18,0
34.543,,,
34.563,-10.18,-10.18,0
34.583,-10.18,-10.18,0
34.603,-10.18,-10.18,0
34.623,-10.3,-10.18,0
34.641,-10.3,-10.18,0
34.661,,,
34.681,-10.18,-10.18,0
34.701,-10.18,-10.18,0
34.721,-10.18,-10.18,0
34.741,-10.18,-10.18,0
34.761,-10.18,-10.18,0
34.783,-10.3,-10.18,0
34.808,-10.18,-10.18,0
34.828,,,
34.841,-10.18,-10.18,0
34.861,-10.18,-10.18,0
34.881,-10.3,-10.18,0
34.902,-10.3,-10.18,0
34.927,-10.3,-10.18,0
34.951,-10.3,-10.18,0
34.976,-10.3,-10.18,0
34.996,,,
35.001,-10.18,-10.3,1
35.021,-10.18,-10.3,1
35.046,-10.3,-10.3,1
35.07,-10.18,-10.3,1
35.095,-10.18,-10.3,1
35.119,-10.3,-10.3,1
35.14,,,
35.146,-10.3,-10.3,1
35.166,,,
35.186,-10.3,-10.3,1
35.206,-10.3,-10.3,1
35.226,-10.3,-10.3,1
35.246,-10.3,-10.3,1
35.266,-10.3,-10.3,1
35.287,-9.93,-9.81,1
35.308,-9.32,-9.32,1
35.328,-8.71,-8.59,1
35.353,-8.35,-7.73,1
35.373,-7.61,-7.12,1
35.394,,,
35.406,-6.76,-6.63,1
35.426,-6.27,-6.39,1
35.446,-5.78,-6.02,1
35.466,-5.29,-5.78,1
35.486,-5.05,-5.66,1
35.506,-4.92,-5.54,1
35.526,,,
35.546,-4.8,-5.41,1
35.566,-4.68,-5.29,1
35.586,-4.68,-5.29,1
35.606,-4.68,-5.17,1
35.626,-4.56,-5.17,0
35.646,-4.44,-5.17,0
35.666,-4.31,-5.17,0
35.686,-4.19,-5.05,0
35.706,-4.07,-5.05,0
35.726,-3.95,-5.05,0
35.746,-4.07,-4.92,0
35.766,-4.07,-4.92,0
35.787,,,
35.806,-4.07,-4.92,0
35.826,-4.07,-4.92,0
35.847,-4.19,-4.92,0
35.867,-4.19,-4.92,0
35.887,-4.07,-4.92,0
35.907,-3.95,-4.92,0
35.927,-4.07,-4.92,0
35.947,-4.07,-4.92,0
35.967,-4.07,-4.8,0
35.988,-3.95,-4.8,0
36.008,-3.95,-4.8,0
36.029,-4.07,-4.8,0
36.049,,,
36.067,-3.95,-4.8,0
36.087,-3.95,-4.8,0
36.107,-4.07,-4.8,0
36.128,-4.07,-4.8,0
36.147,-3.95,-4.92,0
36.167,-3.95,-4.92,0
36.187,-4.07,-4.92,0
36.207,-3.95,-4.92,0
36.227,-3.82,-4.8,0
36.25,-3.82,-4.8,0
36.27,-3.95,-4.68,0
36.291,-3.82,-4.68,0
36.315,-3.82,-4.68,0
36.336,-3.82,-4.68,0
36.356,-3.82,-4.68,0
36.381,-3.82,-4.8,0
36.401,-3.82,-4.8,0
36.422,-4.68,-5.54,0
36.446,-5.9,-6.51,0
36.467,-6.51,-7.12,0
36.487,,,
36.49,,,
36.51,-7,-8.1,0
36.53,-7.61,-9.08,0
36.55,-8.59,-9.45,0
36.57,-9.2,-9.69,0
36.59,-9.57,-9.81,0
36.61,-9.69,-9.93,0
36.63,-9.81,-9.93,0
36.65,-9.93,-10.06,0
36.67,-9.93,-10.06,0
36.69,-9.93,-10.06,0
36.71,,,
36.73,-10.06,-10.06,0
36.75,-10.06,-10.18,0
36.77,-10.06,-10.18,0
36.79,-10.18,-10.18,0
36.81,-10.18,-10.18,0
36.831,-10.18,-10.18,0
36.856,-10.18,-10.18,0
36.876,,,
36.89,-10.18,-10.18,0
36.91,-10.18,-10.18,0
36.93,-10.18,-10.18,0
36.95,-10.18,-10.18,0
36.975,-10.18,-10.18,0
36.999,-10.18,-10.18,0
37.02,,,
37.03,-10.18,-10.18,0
37.05,-10.18,-10.3,0
37.069,-10.18,-10.3,0
37.093,-10.18,-10.3,0
37.118,-10.18,-10.3,0
37.143,-10.3,-10.3,0
37.167,-10.3,-10.3,0
37.188,,,
37.189,,,
37.209,-10.3,-10.3,0
37.229,-10.3,-10.3,0
37.249,-10.3,-10.3,0
37.269,-10.3,-10.3,1
37.289,-10.3,-10.3,1
37.31,-10.3,-10.3,1
37.331,,,
37.349,-10.3,-10.42,1
37.369,-10.3,-10.3,1
37.389,-10.3,-10.42,1
37.409,-10.3,-10.42,1
37.43,-10.42,-10.42,1
37.454,-10.3,-10.42,1
37.479,-10.42,-10.42,1
37.499,,,
37.519,-10.42,-10.42,1
37.539,-10.42,-10.42,1
37.559,-10.3,-10.42,1
37.579,-9.81,-9.81,1
37.599,-9.2,-9.32,1
37.619,-8.71,-8.47,1
37.639,-8.22,-7.73,1
37.659,,,
37.679,-7.25,-7,1
37.699,-6.63,-6.63,1
37.719,-6.02,-6.27,1
37.739,-5.54,-6.02,1
37.759,-5.29,-5.78,1
37.779,-5.05,-5.54,1
37.799,-4.8,-5.41,1
37.819,-4.68,-5.29,1
37.839,-4.56,-5.17,1
37.859,,,
37.879,-4.56,-5.17,1
37.88,-4.56,-5.05,1
37.9,-4.44,-5.05,0
37.921,,,
37.94,-4.31,-5.05,0
37.96,-4.19,-4.92,0
37.98,-4.07,-4.92,0
38,-4.07,-4.92,0
38.02,-3.95,-4.8,0
38.04,-4.07,-4.8,0
38.06,-4.07,-4.8,0
38.081,-4.07,-4.68,0
38.1,-4.07,-4.68,0
38.12,,,
38.14,-4.07,-4.68,0
38.16,-4.07,-4.68,0
38.18,-3.95,-4.8,0
38.2,-3.95,-4.68,0
38.22,-4.07,-4.68,0
38.24,-4.07,-4.68,0
38.26,-3.95,-4.68,0
38.282,-3.95,-4.68,0
38.302,-3.95,-4.68,0
38.322,-3.95,-4.68,0
38.342,-3.95,-4.68,0
38.362,-3.95,-4.56,0
38.383,-4.07,-4.68,0
38.404,-3.95,-4.68,0
38.424,-3.95,-4.68,0
38.449,-3.95,-4.8,0
38.47,-4.07,-4.8,0
38.49,-3.95,-4.68,0
38.515,-3.82,-4.68,0
38.535,-3.82,-4.68,0
38.556,,,
38.562,-3.95,-4.56,0
38.582,-3.82,-4.56,0
38.602,-3.82,-4.56,0
38.622,,,
38.642,-3.82,-4.56,0
38.662,-3.82,-4.56,0
38.682,-3.82,-4.68,0
38.702,-3.95,-4.68,0
38.722,-5.05,-5.78,0
38.742,-6.15,-6.51,0
38.762,-6.76,-7.25,0
38.782,-7.12,-8.47,0
38.802,-7.86,-9.2,0
38.822,-8.71,-9.57,0
38.842,-9.45,-9.81,0
38.863,-9.57,-9.93,0
38.883,,,
38.902,-9.69,-9.93,0
38.922,-9.93,-10.06,0
38.942,-9.93,-10.06,0
38.962,-9.93,-10.18,0
38.982,-10.06,-10.18,0
39.002,-10.18,-10.18,0
39.022,-10.18,-10.3,0
39.047,-10.18,-10.3,0
39.072,-10.18,-10.3,0
