Time (s),Pressure 1 (kPa),Pressure 2 (kPa),Switch State
0.09,-7.61,-7.86,1
0.11,-7.49,-7.98,1
0.13,-7.61,-7.86,1
0.15,-7.61,-7.86,1
0.17,-7.61,-7.86,1
0.19,-7.49,-7.86,1
0.21,-7.61,-7.98,1
0.23,-7.61,-7.86,1
0.25,-7.61,-7.86,1
0.27,-7.61,-7.98,1
0.29,-7.61,-7.86,1
0.31,-7.61,-7.86,1
0.33,-7.49,-7.98,1
0.35,-7.49,-7.86,1
0.37,-7.61,-7.86,1
0.39,-7.61,-7.86,1
0.41,-7.61,-7.86,1
0.43,-7.61,-7.86,1
0.45,-7.61,-7.86,1
0.47,-7.61,-7.86,1
0.49,-7.49,-7.86,1
0.51,-7.61,-7.86,1
0.53,-7.61,-7.86,1
0.55,-7.49,-7.86,1
0.57,-7.61,-7.86,1
0.59,-7.61,-7.86,1
0.61,-7.61,-7.86,1
0.63,-7.61,-7.98,1
0.65,-7.61,-7.86,1
0.67,-7.61,-7.86,1
0.69,-7.49,-7.98,1
0.71,-7.61,-7.86,1
0.73,-7.61,-7.86,1
0.75,-7.61,-7.86,1
0.77,-7.61,-7.98,1
0.79,-7.61,-7.86,1
0.81,-7.49,-7.86,1
0.83,-7.61,-7.86,1
0.85,-7.61,-7.86,1
0.87,-7.61,-7.86,1
0.891,-7.61,-7.86,1
0.911,-7.61,-7.86,1
0.931,-7.61,-7.86,1
0.951,-7.49,-7.86,1
0.971,-7.61,-7.86,1
0.991,-7.61,-7.86,1
1.011,-7.49,-7.86,1
1.031,-7.61,-7.86,1
1.051,-7.61,-7.86,1
1.071,-7.49,-7.98,1
1.091,-7.61,-7.86,1
1.111,-7.61,-7.86,1
1.131,-7.49,-7.86,1
1.151,-7.61,-7.86,1
1.171,-7.49,-7.86,1
1.191,-7.49,-7.86,1
1.211,-7.61,-7.86,1
1.231,-7.61,-7.86,1
1.251,-7.61,-7.86,1
1.271,-7.61,-7.86,1
1.291,-7.61,-7.86,1
1.311,-7.49,-7.86,1
1.331,-7.49,-7.86,1
1.351,-7.61,-7.86,1
1.371,-7.61,-7.86,1
1.391,-7.61,-7.86,1
1.411,-7.61,-7.86,1
1.431,-7.61,-7.86,1
1.451,-7.61,-7.86,1
1.471,-7.49,-7.98,1
1.491,-7.49,-7.86,1
1.511,-7.49,-7.86,1
1.531,-7.49,-7.86,1
1.551,-7.61,-7.86,1
1.571,-7.61,-7.98,1
1.591,-7.49,-7.86,1
1.611,-7.61,-7.86,1
1.631,-7.49,-7.86,1
1.651,-7.49,-7.86,1
1.671,-7.61,-7.86,1
1.691,-7.49,-7.86,1
1.691,-7.49,-7.98,1
1.711,-7.61,-7.86,1
1.731,-7.61,-7.86,1
1.751,-7.61,-7.86,1
1.771,-7.61,-7.98,1
1.791,-7.61,-7.86,1
1.811,-7.61,-7.86,1
1.831,-7.61,-7.86,1
1.852,-7.49,-7.86,1
1.871,-7.61,-7.86,1
1.891,-7.61,-7.86,1
1.911,-7.61,-7.86,1
1.931,-7.61,-7.86,1
1.951,-7.61,-7.86,1
1.971,-7.61,-7.86,1
1.993,-7.61,-7.86,1
2.011,-7.61,-7.86,1
2.032,-7.49,-7.86,1
2.053,-7.61,-7.86,1
2.071,-7.61,-7.98,1
2.093,-7.49,-7.98,1
2.113,-7.49,-7.86,1
2.133,-7.61,-7.86,1
2.153,-7.49,-7.98,1
2.173,-7.61,-7.86,1
2.193,-7.61,-7.86,1
2.213,-7.61,-7.86,1
2.233,-7.61,-7.86,1
2.253,-7.61,-7.86,1
2.273,-7.61,-7.86,1
2.293,-7.61,-7.86,1
2.314,-7.61,-7.86,1
2.333,-7.61,-7.98,1
2.353,-7.61,-7.86,1
2.373,-7.49,-7.86,1
2.393,-7.61,-7.86,1
2.413,-7.61,-7.98,1
2.433,-7.61,-7.86,1
2.453,-7.61,-7.86,1
2.473,-7.49,-7.86,1
2.493,-7.61,-7.86,1
2.513,-7.61,-7.86,1
2.533,-7.61,-7.86,1
2.553,-7.49,-7.86,1
2.573,-7.61,-7.86,1
2.593,-7.49,-7.86,1
2.613,-7.61,-7.98,1
2.633,-7.61,-7.86,1
2.653,-7.61,-7.86,1
2.673,-7.61,-7.86,1
2.693,-7.49,-7.86,1
2.713,-7.61,-7.86,1
2.733,-7.61,-7.98,1
2.753,-7.61,-7.86,1
2.773,-7.61,-7.86,1
2.793,-7.61,-7.86,1
2.813,-7.61,-7.86,1
2.833,-7.61,-7.86,1
2.853,-7.61,-7.86,1
2.873,-7.61,-7.86,1
2.893,-7.61,-7.86,1
2.894,-7.49,-7.86,1
2.914,-7.49,-7.86,1
2.934,-7.61,-7.86,1
2.954,-7.49,-7.86,1
2.974,-7.61,-7.86,1
2.994,-7.61,-7.86,1
3.014,-7.49,-7.86,1
3.034,-7.49,-7.86,1
3.054,-7.49,-7.86,1
3.074,-7.61,-7.86,1
3.094,-7.61,-7.86,1
3.114,-7.61,-7.86,1
3.134,-7.61,-7.86,1
3.154,-7.61,-7.86,1
3.174,-7.49,-7.86,1
3.194,-7.61,-7.86,1
3.214,-7.49,-7.86,1
3.234,-7.61,-7.86,1
3.254,-7.61,-7.86,1
3.274,-7.49,-7.86,1
3.294,-7.49,-7.86,1
3.294,-7.49,-7.86,1
3.314,-7.25,-7.86,1
3.334,-6.88,-7.98,1
3.354,-6.88,-7.86,1
3.374,-7.0,-7.86,1
3.394,-7.12,-7.86,1
3.414,-7.25,-7.86,1
3.434,-7.25,-7.86,1
3.454,-7.37,-7.86,1
3.474,-7.37,-7.86,1
3.494,-7.37,-7.98,1
3.514,-7.49,-7.86,1
3.534,-7.49,-7.86,1
3.554,-7.49,-7.86,1
3.574,-7.49,-7.86,1
3.594,-7.49,-7.86,1
3.614,-7.49,-7.86,1
3.634,-7.49,-7.86,1
3.654,-7.49,-7.98,1
3.674,-7.49,-7.98,1
3.694,-7.49,-8.47,1
3.695,-7.49,-8.71,1
3.715,-7.49,-8.96,1
3.735,-7.49,-9.08,1
3.755,-7.49,-8.83,1
3.775,-7.49,-8.59,1
3.795,-7.49,-8.35,1
3.815,-7.49,-8.22,1
3.835,-7.49,-8.1,1
3.855,-7.61,-8.1,1
3.875,-7.49,-7.98,1
3.896,-7.49,-7.98,1
3.915,-7.61,-7.98,1
3.935,-7.49,-7.98,1
3.955,-7.49,-7.98,1
3.975,-7.49,-7.98,1
3.995,-7.49,-7.98,1
4.015,-7.49,-7.86,1
4.035,-7.49,-7.98,1
4.055,-7.49,-7.98,1
4.075,-7.61,-7.98,1
4.095,-7.49,-7.98,1
4.115,-7.49,-7.98,1
4.135,-7.61,-7.98,1
4.155,-7.49,-7.98,1
4.175,-7.49,-7.98,1
4.195,-7.61,-7.98,1
4.215,-7.49,-7.98,1
4.235,-7.49,-7.98,1
4.255,-7.49,-7.98,1
4.275,-7.61,-7.98,1
4.295,-7.49,-7.98,1
4.315,-7.49,-7.98,1
4.335,-7.49,-7.98,1
4.355,-7.49,-7.98,1
4.375,-7.49,-7.98,1
4.395,-7.49,-7.98,1
4.415,-7.49,-7.98,1
4.435,-7.49,-7.98,1
4.455,-7.49,-7.98,1
4.475,-7.49,-7.98,1
4.495,-7.49,-7.98,1
4.496,-7.49,-7.98,1
4.516,-7.49,-7.98,1
4.536,-7.49,-7.98,1
4.556,-7.12,-7.86,1
4.576,-6.51,-7.61,1
4.596,-5.9,-7.0,1
4.616,-5.54,-6.51,1
4.636,-5.29,-6.27,1
4.656,-5.17,-6.15,1
4.676,-4.8,-5.9,1
4.696,-4.68,-5.66,1
4.716,-4.56,-5.54,1
4.736,-4.44,-5.41,1
4.756,-4.31,-5.29,1
4.776,-4.31,-5.17,1
4.796,-4.31,-5.17,1
4.816,-4.44,-5.05,1
4.836,-4.31,-5.05,1
4.856,-4.07,-5.05,1
4.876,-4.07,-4.92,0
4.896,-4.07,-5.05,0
4.897,-3.95,-5.05,0
4.917,-3.95,-4.92,0
4.937,-4.07,-4.92,0
4.957,-4.19,-4.8,0
4.977,-4.07,-4.8,0
4.997,-4.07,-4.8,0
5.017,-3.95,-4.8,0
5.037,-3.95,-4.8,0
5.057,-3.95,-4.8,0
5.077,-3.95,-4.8,0
5.097,-3.95,-4.8,0
5.117,-4.07,-4.8,0
5.137,-4.07,-4.8,0
5.157,-3.95,-4.8,0
5.177,-3.95,-4.8,0
5.197,-3.95,-4.8,0
5.217,-3.95,-4.8,0
5.237,-3.95,-4.68,0
5.257,-3.95,-4.68,0
5.277,-3.95,-4.68,0
5.297,-4.07,-4.68,0
5.297,-3.95,-4.68,0
5.317,-3.95,-4.8,0
5.337,-3.95,-4.8,0
5.357,-3.95,-4.8,0
5.377,-3.95,-4.92,0
5.397,-3.82,-4.8,0
5.417,-3.82,-4.8,0
5.437,-3.82,-4.68,0
5.457,-3.82,-4.68,0
5.477,-3.82,-4.68,0
5.497,-3.82,-4.56,0
5.517,-3.7,-4.56,0
5.537,-3.82,-4.68,0
5.557,-3.95,-4.68,0
5.577,-3.95,-4.68,0
5.597,-4.92,-5.66,0
5.617,-6.02,-6.51,0
5.637,-6.63,-7.12,0
5.657,-6.88,-8.1,0
5.677,-7.37,-8.96,0
5.697,-8.47,-9.45,0
5.698,-9.08,-9.69,0
5.718,-9.57,-9.69,0
5.738,-9.69,-9.81,0
5.758,-9.81,-9.93,0
5.778,-9.81,-9.93,0
5.798,-9.93,-9.93,0
5.818,-9.93,-9.93,0
5.838,-9.93,-10.06,0
5.858,-9.93,-10.06,0
5.878,-9.93,-10.06,0
5.898,-10.06,-10.18,0
5.918,-10.06,-10.06,0
5.938,-10.06,-10.06,0
5.958,-10.06,-10.06,0
5.978,-10.06,-10.06,0
5.998,-10.18,-10.18,0
6.018,-10.18,-10.18,0
6.038,-10.06,-10.06,0
6.058,-10.06,-10.18,0
6.078,-10.18,-10.18,0
6.098,-10.18,-10.18,0
6.098,-10.18,-10.18,0
6.118,-10.18,-10.18,0
6.138,-10.18,-10.18,0
6.158,-10.18,-10.18,0
6.178,-10.06,-10.18,0
6.198,-10.18,-10.18,0
6.218,-10.18,-10.18,0
6.238,-10.18,-10.18,0
6.258,-10.18,-10.18,0
6.278,-10.18,-10.18,0
6.298,-10.18,-10.18,1
6.318,-10.18,-10.18,1
6.338,-10.18,-10.18,1
6.358,-10.18,-10.18,1
6.378,-10.18,-10.18,1
6.398,-10.18,-10.18,1
6.418,-10.18,-10.3,1
6.438,-10.18,-10.18,1
6.458,-10.18,-10.18,1
6.478,-10.18,-10.18,1
6.498,-10.18,-10.3,1
6.499,-10.3,-10.3,1
6.519,-10.3,-10.3,1
6.539,-10.3,-10.3,1
6.559,-9.93,-9.81,1
6.579,-9.2,-9.32,1
6.599,-8.71,-8.71,1
6.619,-8.22,-7.73,1
6.639,-7.61,-7.12,1
6.659,-6.88,-6.76,1
6.679,-6.15,-6.39,1
6.699,-5.78,-6.15,1
6.719,-5.41,-5.9,1
6.739,-5.05,-5.78,1
6.759,-4.92,-5.66,1
6.779,-4.8,-5.41,1
6.799,-4.68,-5.29,1
6.819,-4.56,-5.29,1
6.839,-4.68,-5.29,1
6.859,-4.56,-5.17,1
6.879,-4.31,-5.17,1
6.9,-4.19,-5.05,0
6.92,-4.19,-5.17,0
6.94,-4.19,-5.17,0
6.96,-4.19,-5.05,0
6.98,-4.19,-4.92,0
7.0,-4.19,-4.92,0
7.02,-4.31,-4.92,0
7.04,-4.19,-4.92,0
7.06,-4.07,-4.92,0
7.08,-4.07,-4.92,0
7.1,-4.07,-4.8,0
7.12,-4.07,-4.92,0
7.14,-4.07,-4.92,0
7.16,-4.19,-4.92,0
7.18,-4.19,-4.92,0
7.2,-4.07,-4.92,0
7.22,-3.95,-4.8,0
7.24,-3.95,-4.8,0
7.26,-3.95,-4.8,0
7.28,-3.95,-4.8,0
7.3,-4.07,-4.8,0
7.301,-4.07,-4.8,0
7.321,-4.07,-4.8,0
7.341,-4.07,-4.8,0
7.361,-3.95,-4.8,0
7.381,-3.95,-4.8,0
7.401,-3.95,-4.8,0
7.421,-3.95,-4.8,0
7.441,-3.95,-4.8,0
7.461,-3.95,-4.8,0
7.481,-3.82,-4.68,0
7.501,-3.82,-4.68,0
7.521,-3.82,-4.68,0
7.541,-3.82,-4.68,0
7.561,-3.82,-4.68,0
7.581,-3.82,-4.56,0
7.601,-3.95,-4.68,0
7.621,-4.07,-4.8,0
7.641,-5.17,-5.9,0
7.661,-6.15,-6.63,0
7.681,-6.63,-7.25,0
7.701,-7.0,-8.35,0
7.701,-7.61,-9.08,0
7.721,-8.71,-9.45,0
7.741,-9.2,-9.69,0
7.761,-9.57,-9.81,0
7.781,-9.69,-9.81,0
7.801,-9.81,-9.93,0
7.821,-9.93,-9.93,0
7.841,-9.93,-9.93,0
7.861,-9.93,-9.93,0
7.881,-9.93,-10.06,0
7.901,-9.93,-10.06,0
7.921,-9.93,-10.06,0
7.941,-9.93,-10.06,0
7.961,-10.06,-10.18,0
7.981,-10.06,-10.18,0
8.001,-10.18,-10.18,0
8.021,-10.18,-10.06,0
8.041,-10.18,-10.18,0
8.061,-10.18,-10.18,0
8.081,-10.06,-10.18,0
8.101,-10.06,-10.18,0
8.102,-10.18,-10.18,0
8.122,-10.18,-10.18,0
8.142,-10.18,-10.18,0
8.162,-10.18,-10.18,0
8.182,-10.06,-10.18,0
8.202,-10.18,-10.18,0
8.222,-10.06,-10.18,0
8.242,-10.18,-10.18,0
8.262,-10.18,-10.18,0
8.282,-10.18,-10.18,0
8.302,-10.3,-10.18,0
8.322,-10.18,-10.18,0
8.342,-10.18,-10.18,1
8.362,-10.18,-10.18,1
8.382,-10.18,-10.3,1
8.402,-10.18,-10.3,1
8.422,-10.18,-10.3,1
8.442,-10.18,-10.18,1
8.462,-10.18,-10.3,1
8.482,-10.18,-10.3,1
8.502,-10.18,-10.18,1
8.522,-10.18,-10.3,1
8.542,-10.3,-10.3,1
8.562,-10.3,-10.3,1
8.582,-10.3,-10.3,1
8.602,-10.3,-10.3,1
8.622,-9.81,-9.81,1
8.642,-9.2,-9.32,1
8.662,-8.71,-8.59,1
8.682,-8.22,-7.61,1
8.702,-7.49,-7.12,1
8.722,-6.76,-6.76,1
8.742,-6.27,-6.39,1
8.762,-5.78,-6.15,1
8.782,-5.29,-5.9,1
8.802,-5.05,-5.78,1
8.822,-4.92,-5.54,1
8.842,-4.68,-5.41,1
8.862,-4.68,-5.29,1
8.882,-4.68,-5.29,1
8.903,-4.68,-5.17,1
8.923,-4.68,-5.17,1
8.943,-4.44,-5.17,1
8.963,-4.19,-5.05,0
8.983,-4.07,-5.05,0
9.003,-4.07,-5.05,0
9.023,-4.07,-5.05,0
9.043,-4.19,-5.05,0
9.063,-4.31,-4.92,0
9.083,-4.31,-4.92,0
9.103,-4.19,-4.92,0
9.123,-4.07,-4.92,0
9.143,-3.95,-4.92,0
9.163,-3.95,-4.92,0
9.183,-3.95,-4.92,0
9.203,-4.07,-4.92,0
9.223,-4.19,-4.92,0
9.243,-4.19,-4.92,0
9.263,-4.07,-4.92,0
9.283,-3.95,-4.92,0
9.303,-3.95,-4.8,0
9.323,-3.95,-4.8,0
9.343,-3.95,-4.8,0
9.363,-4.07,-4.8,0
9.383,-4.19,-4.8,0
9.403,-4.19,-4.8,0
9.423,-4.19,-4.8,0
9.443,-3.95,-4.8,0
9.463,-3.95,-4.92,0
9.483,-3.95,-4.92,0
9.503,-3.95,-4.92,0
9.523,-3.95,-4.92,0
9.543,-3.95,-4.8,0
9.563,-3.95,-4.68,0
9.583,-3.95,-4.68,0
9.603,-3.82,-4.68,0
9.623,-3.7,-4.68,0
9.643,-3.7,-4.68,0
9.663,-3.82,-4.68,0
9.683,-3.95,-4.8,0
9.703,-4.92,-5.66,0
9.704,-5.9,-6.63,0
9.724,-6.63,-7.12,0
9.744,-6.88,-8.22,0
9.764,-7.49,-9.08,0
9.784,-8.59,-9.45,0
9.804,-9.2,-9.69,0
9.824,-9.45,-9.81,0
9.845,-9.57,-9.81,0
9.864,-9.81,-9.93,0
9.884,-9.81,-9.93,0
9.904,-9.93,-9.93,0
9.924,-9.93,-9.93,0
9.944,-9.93,-9.93,0
9.964,-9.93,-10.06,0
9.984,-9.93,-10.06,0
10.004,-10.06,-10.06,0
10.024,-10.18,-10.06,0
10.044,-10.18,-10.18,0
10.064,-10.18,-10.06,0
10.085,-10.18,-10.06,0
10.104,-10.18,-10.06,0
10.104,-10.06,-10.18,0
10.124,-10.06,-10.18,0
10.144,-10.18,-10.18,0
10.164,-10.18,-10.18,0
10.184,-10.18,-10.18,0
10.204,-10.18,-10.18,0
10.224,-10.18,-10.18,0
10.244,-10.06,-10.18,0
10.264,-10.06,-10.18,0
10.284,-10.06,-10.18,0
10.304,-10.18,-10.18,0
10.324,-10.18,-10.18,0
10.344,-10.18,-10.18,0
10.364,-10.18,-10.18,0
10.384,-10.18,-10.18,1
10.404,-10.18,-10.18,1
10.424,-10.18,-10.18,1
10.444,-10.18,-10.18,1
10.464,-10.18,-10.18,1
10.484,-10.18,-10.18,1
10.504,-10.18,-10.18,1
10.505,-10.18,-10.18,1
10.525,-10.18,-10.3,1
10.545,-10.18,-10.3,1
10.565,-10.18,-10.3,1
10.585,-10.3,-10.18,1
10.605,-10.3,-10.3,1
10.625,-9.69,-9.69,1
10.645,-9.08,-9.2,1
10.665,-8.59,-8.47,1
10.685,-8.1,-7.49,1
10.705,-7.37,-7.0,1
10.725,-6.63,-6.63,1
10.745,-6.02,-6.27,1
10.765,-5.66,-6.02,1
10.785,-5.17,-5.78,1
10.805,-4.92,-5.66,1
10.825,-4.8,-5.41,1
10.845,-4.68,-5.41,1
10.865,-4.56,-5.29,1
10.885,-4.68,-5.17,1
10.906,-4.68,-5.17,1
10.926,-4.44,-5.17,1
10.946,-4.31,-5.17,0
10.966,-4.07,-5.17,0
10.986,-4.07,-5.17,0
11.006,-4.07,-5.17,0
11.026,-4.19,-5.05,0
11.046,-4.31,-5.05,0
11.066,-4.31,-4.92,0
11.086,-4.07,-4.92,0
11.106,-4.07,-4.92,0
11.126,-3.95,-4.92,0
11.146,-3.95,-4.92,0
11.166,-3.95,-4.92,0
11.186,-4.19,-4.92,0
11.206,-4.19,-4.92,0
11.226,-4.07,-4.92,0
11.246,-3.95,-4.92,0
11.266,-3.95,-4.92,0
11.286,-3.82,-4.92,0
11.306,-3.82,-4.8,0
11.306,-3.82,-4.8,0
11.326,-4.07,-4.8,0
11.346,-4.07,-4.8,0
11.366,-3.95,-4.8,0
11.386,-3.95,-4.8,0
11.406,-3.82,-4.8,0
11.426,-3.82,-4.92,0
11.446,-3.82,-4.92,0
11.466,-3.82,-4.8,0
11.486,-3.95,-4.8,0
11.506,-3.82,-4.8,0
11.526,-3.95,-4.68,0
11.546,-3.82,-4.68,0
11.566,-3.7,-4.68,0
11.586,-3.82,-4.68,0
11.606,-3.95,-4.68,0
11.626,-3.95,-4.68,0
11.646,-4.92,-5.66,0
11.666,-6.02,-6.51,0
11.686,-6.63,-7.12,0
11.707,-7.0,-8.22,0
11.727,-7.61,-9.08,0
11.747,-8.59,-9.45,0
11.767,-9.2,-9.69,0
11.787,-9.57,-9.81,0
11.807,-9.69,-9.81,0
11.827,-9.81,-9.93,0
11.847,-9.93,-9.93,0
11.867,-9.93,-9.93,0
11.887,-9.93,-10.06,0
11.907,-9.93,-10.06,0
11.927,-9.93,-10.06,0
11.947,-10.06,-10.06,0
11.967,-10.06,-10.18,0
11.987,-10.06,-10.06,0
12.007,-10.06,-10.06,0
12.027,-10.06,-10.18,0
12.047,-10.06,-10.18,0
12.067,-10.06,-10.06,0
12.087,-9.93,-10.06,0
12.107,-10.06,-10.06,0
12.108,-10.06,-10.06,0
12.128,-10.06,-10.18,0
12.148,-10.06,-10.18,0
12.168,-10.06,-10.18,0
12.188,-10.06,-10.18,0
12.208,-10.06,-10.18,0
12.228,-10.06,-10.18,0
12.248,-10.18,-10.18,0
12.268,-10.18,-10.18,0
12.288,-10.18,-10.18,0
12.308,-10.18,-10.18,0
12.328,-10.18,-10.18,1
12.348,-10.18,-10.18,1
12.368,-10.18,-10.18,1
12.388,-10.18,-10.18,1
12.408,-10.18,-10.18,1
12.428,-10.18,-10.18,1
12.448,-10.18,-10.18,1
12.468,-10.18,-10.18,1
12.488,-10.18,-10.18,1
12.508,-10.18,-10.3,1
12.508,-10.18,-10.3,1
12.528,-10.18,-10.3,1
12.548,-10.18,-10.3,1
12.568,-10.3,-10.3,1
12.588,-9.69,-9.69,1
12.608,-9.08,-9.2,1
12.628,-8.59,-8.47,1
12.648,-8.1,-7.49,1
12.668,-7.25,-7.0,1
12.688,-6.51,-6.63,1
12.708,-6.02,-6.27,1
12.728,-5.66,-6.02,1
12.748,-5.29,-5.78,1
12.768,-4.92,-5.66,1
12.788,-4.68,-5.54,1
12.808,-4.56,-5.41,1
12.828,-4.56,-5.41,1
12.848,-4.68,-5.29,1
12.868,-4.68,-5.17,1
12.888,-4.56,-5.17,1
12.908,-4.31,-5.17,0
12.909,-4.07,-5.17,0
12.929,-3.95,-5.17,0
12.949,-4.07,-5.05,0
12.969,-4.07,-5.05,0
12.989,-4.19,-5.05,0
13.009,-4.19,-4.92,0
13.029,-4.19,-4.92,0
13.049,-4.19,-4.92,0
13.069,-4.07,-4.92,0
13.089,-4.07,-4.92,0
13.109,-4.07,-4.92,0
13.129,-4.07,-4.92,0
13.149,-4.19,-4.92,0
13.169,-4.19,-4.92,0
13.189,-4.07,-4.92,0
13.209,-3.95,-4.92,0
13.229,-3.95,-4.8,0
13.249,-3.95,-4.8,0
13.269,-3.95,-4.8,0
13.289,-4.07,-4.8,0
13.309,-4.19,-4.8,0
13.31,-4.19,-4.8,0
13.33,-4.07,-4.8,0
13.35,-3.95,-4.8,0
13.37,-3.82,-4.8,0
13.39,-3.95,-4.8,0
13.41,-3.82,-4.8,0
13.43,-3.82,-4.8,0
13.45,-3.82,-4.68,0
13.47,-3.82,-4.68,0
13.49,-3.7,-4.68,0
13.51,-3.58,-4.68,0
13.53,-3.58,-4.68,0
13.55,-3.7,-4.68,0
13.57,-3.82,-4.8,0
13.59,-4.8,-5.78,0
13.61,-5.9,-6.63,0
13.63,-6.51,-7.25,0
13.65,-6.88,-8.35,0
13.67,-7.49,-9.2,0
13.69,-8.59,-9.45,0
13.71,-9.2,-9.69,0
13.71,-9.45,-9.81,0
13.73,-9.69,-9.93,0
13.75,-9.81,-9.93,0
13.77,-9.93,-9.93,0
13.79,-9.93,-9.93,0
13.81,-9.93,-9.93,0
13.83,-10.06,-9.93,0
13.85,-10.06,-10.06,0
13.87,-10.06,-10.06,0
13.89,-10.06,-10.18,0
13.91,-10.18,-10.06,0
13.93,-10.18,-10.06,0
13.95,-10.18,-10.06,0
13.97,-10.18,-10.18,0
13.99,-10.18,-10.06,0
14.01,-10.06,-10.06,0
14.03,-10.18,-10.06,0
14.05,-10.18,-10.06,0
14.07,-10.18,-10.18,0
14.09,-10.18,-10.18,0
14.11,-10.18,-10.18,0
14.111,-10.06,-10.18,0
14.131,-10.06,-10.18,0
14.151,-10.06,-10.18,0
14.171,-10.18,-10.18,0
14.191,-10.18,-10.18,0
14.211,-10.18,-10.18,0
14.231,-10.18,-10.18,0
14.251,-10.18,-10.18,1
14.271,-10.18,-10.18,1
14.291,-10.06,-10.18,1
14.311,-10.18,-10.18,1
14.331,-10.18,-10.18,1
14.351,-10.18,-10.18,1
14.371,-10.18,-10.18,1
14.391,-10.18,-10.18,1
14.411,-10.18,-10.18,1
14.431,-10.18,-10.3,1
14.451,-10.3,-10.3,1
14.471,-10.3,-10.3,1
14.491,-10.3,-10.3,1
14.512,-10.3,-10.3,1
14.532,-9.69,-9.69,1
14.552,-9.08,-9.08,1
14.572,-8.59,-8.35,1
14.592,-7.98,-7.37,1
14.612,-7.12,-6.88,1
14.632,-6.51,-6.51,1
14.652,-6.02,-6.27,1
14.672,-5.54,-6.02,1
14.692,-5.17,-5.78,1
14.712,-4.92,-5.66,1
14.732,-4.8,-5.41,1
14.752,-4.56,-5.29,1
14.772,-4.56,-5.29,1
14.792,-4.68,-5.17,1
14.812,-4.68,-5.29,1
14.832,-4.44,-5.17,1
14.852,-4.31,-5.17,0
14.872,-4.07,-5.17,0
14.892,-3.95,-5.17,0
14.912,-4.07,-5.05,0
14.912,-4.07,-5.05,0
14.932,-4.19,-4.92,0
14.952,-4.19,-4.92,0
14.972,-4.07,-4.92,0
14.992,-4.07,-4.92,0
15.012,-3.95,-4.92,0
15.032,-3.95,-4.8,0
15.052,-3.95,-4.92,0
15.072,-3.95,-4.92,0
15.092,-4.19,-4.92,0
15.112,-4.07,-4.92,0
15.132,-3.95,-4.92,0
15.152,-3.95,-4.8,0
15.172,-3.82,-4.8,0
15.192,-3.82,-4.8,0
15.212,-3.95,-4.8,0
15.232,-4.07,-4.8,0
15.252,-4.19,-4.8,0
15.272,-4.07,-4.8,0
15.292,-4.07,-4.8,0
15.313,-3.95,-4.92,0
15.333,-3.95,-4.92,0
15.353,-3.95,-4.92,0
15.373,-3.95,-4.8,0
15.393,-3.95,-4.8,0
15.413,-3.95,-4.8,0
15.433,-3.95,-4.68,0
15.453,-3.82,-4.68,0
15.473,-3.7,-4.68,0
15.493,-3.7,-4.68,0
15.513,-3.82,-4.68,0
15.533,-3.95,-4.8,0
15.553,-5.05,-5.9,0
15.573,-6.15,-6.76,0
15.593,-6.63,-7.25,0
15.613,-7.0,-8.47,0
15.633,-7.73,-9.2,0
15.653,-8.71,-9.57,0
15.673,-9.2,-9.69,0
15.693,-9.57,-9.81,0
15.713,-9.69,-9.81,0
15.733,-9.81,-9.93,0
15.753,-9.81,-9.93,0
15.773,-9.93,-9.93,0
15.793,-9.93,-9.93,0
15.813,-9.93,-9.93,0
15.833,-9.93,-10.06,0
15.853,-9.93,-10.06,0
15.873,-10.06,-10.06,0
15.893,-10.06,-10.06,0
15.913,-10.18,-10.06,0
15.933,-10.06,-10.18,0
15.953,-10.06,-10.18,0
15.973,-10.06,-10.18,0
15.993,-10.06,-10.06,0
16.013,-10.18,-10.06,0
16.033,-10.18,-10.18,0
16.053,-10.18,-10.18,0
16.074,-10.18,-10.18,0
16.093,-10.18,-10.18,0
16.115,-10.18,-10.18,0
16.135,-10.18,-10.18,0
16.157,-10.18,-10.18,0
16.175,-10.18,-10.18,0
16.195,-10.18,-10.18,0
16.215,-10.18,-10.18,0
16.235,-10.18,-10.18,0
16.255,-10.18,-10.18,1
16.275,-10.18,-10.18,1
16.295,-10.18,-10.18,1
16.315,-10.18,-10.18,1
16.335,-10.18,-10.18,1
16.355,-10.18,-10.18,1
16.375,-10.18,-10.18,1
16.395,-10.18,-10.18,1
16.415,-10.18,-10.18,1
16.435,-10.18,-10.18,1
16.455,-10.18,-10.3,1
16.475,-10.3,-10.3,1
16.495,-10.3,-10.3,1
16.515,-10.3,-10.3,1
16.535,-9.69,-9.69,1
16.555,-8.96,-9.08,1
16.575,-8.47,-8.35,1
16.595,-7.98,-7.49,1
16.615,-7.25,-6.88,1
16.635,-6.51,-6.51,1
16.655,-6.02,-6.27,1
16.675,-5.54,-6.02,1
16.695,-5.17,-5.78,1
16.715,-5.05,-5.54,1
16.735,-4.8,-5.41,1
16.755,-4.68,-5.41,1
16.775,-4.56,-5.29,1
16.795,-4.68,-5.17,1
16.815,-4.68,-5.17,1
16.835,-4.44,-5.17,1
16.855,-4.31,-5.17,0
16.875,-4.19,-5.17,0
16.895,-4.07,-5.17,0
16.915,-4.07,-5.05,0
16.935,-4.07,-5.05,0
16.955,-4.31,-5.05,0
16.975,-4.19,-5.05,0
16.995,-4.19,-4.92,0
17.015,-4.19,-4.92,0
17.035,-4.07,-4.92,0
17.055,-3.95,-4.92,0
17.075,-3.95,-4.92,0
17.095,-4.07,-4.92,0
17.115,-4.07,-4.92,0
17.135,-4.07,-4.92,0
17.155,-3.95,-4.92,0
17.175,-3.95,-4.92,0
17.195,-3.95,-4.8,0
17.215,-3.95,-4.92,0
17.235,-3.82,-4.8,0
17.255,-4.07,-4.8,0
17.275,-4.07,-4.8,0
17.295,-3.95,-4.8,0
17.315,-3.95,-4.8,0
17.316,-3.95,-4.8,0
17.337,-3.82,-4.92,0
17.356,-3.82,-4.92,0
17.377,-3.82,-4.8,0
17.396,-3.82,-4.8,0
17.417,-3.82,-4.68,0
17.437,-3.82,-4.68,0
17.456,-3.82,-4.68,0
17.476,-3.82,-4.68,0
17.496,-3.7,-4.68,0
17.517,-3.82,-4.68,0
17.536,-3.95,-4.68,0
17.556,-5.17,-5.78,0
17.577,-6.15,-6.63,0
17.597,-6.76,-7.12,0
17.617,-7.12,-8.35,0
17.637,-7.73,-9.08,0
17.656,-8.83,-9.45,0
17.677,-9.32,-9.69,0
17.696,-9.57,-9.81,0
17.717,-9.81,-9.81,0
17.737,-9.81,-9.93,0
17.757,-9.93,-9.93,0
17.777,-9.93,-9.93,0
17.797,-9.93,-10.06,0
17.817,-9.93,-10.06,0
17.837,-10.06,-10.06,0
17.857,-10.06,-10.18,0
17.877,-10.06,-10.06,0
17.897,-10.18,-10.18,0
17.917,-10.18,-10.06,0
17.937,-10.06,-10.18,0
17.957,-10.06,-10.18,0
17.977,-10.06,-10.18,0
17.997,-10.06,-10.06,0
18.017,-10.06,-10.18,0
18.037,-10.18,-10.18,0
18.057,-10.18,-10.18,0
18.077,-10.06,-10.18,0
18.097,-10.06,-10.18,0
18.118,-10.06,-10.18,0
18.138,-10.06,-10.18,0
18.158,-10.06,-10.18,0
18.178,-10.18,-10.18,0
18.198,-10.18,-10.18,0
18.218,-10.18,-10.18,0
18.238,-10.18,-10.18,0
18.258,-10.18,-10.18,1
18.278,-10.18,-10.18,1
18.298,-10.3,-10.18,1
18.318,-10.18,-10.18,1
18.338,-10.3,-10.18,1
18.358,-10.3,-10.18,1
18.378,-10.18,-10.18,1
18.398,-10.18,-10.18,1
18.418,-10.18,-10.18,1
18.438,-10.3,-10.18,1
18.458,-10.3,-10.18,1
18.478,-10.3,-10.3,1
18.498,-10.3,-10.18,1
18.518,-10.18,-10.18,1
18.519,-9.57,-9.57,1
18.539,-8.96,-8.96,1
18.559,-8.47,-8.22,1
18.579,-7.98,-7.37,1
18.599,-7.12,-6.76,1
18.619,-6.39,-6.51,1
18.639,-5.9,-6.15,1
18.659,-5.41,-6.02,1
18.679,-5.05,-5.78,1
18.699,-4.92,-5.66,1
18.719,-4.8,-5.41,1
18.739,-4.68,-5.41,1
18.759,-4.56,-5.29,1
18.779,-4.68,-5.29,1
18.799,-4.56,-5.17,1
18.819,-4.44,-5.17,1
18.839,-4.31,-5.17,0
18.859,-4.07,-5.17,0
18.879,-3.95,-5.05,0
18.899,-4.07,-5.05,0
18.919,-4.07,-5.05,0
18.919,-4.19,-5.05,0
18.939,-4.31,-4.92,0
18.959,-4.07,-4.92,0
18.979,-4.19,-4.92,0
18.999,-3.95,-4.92,0
19.019,-3.95,-4.92,0
19.039,-3.95,-4.92,0
19.059,-4.07,-4.92,0
19.079,-4.19,-4.92,0
19.099,-4.07,-4.92,0
19.119,-4.07,-4.92,0
19.139,-3.95,-4.8,0
19.159,-3.82,-4.8,0
19.179,-3.95,-4.8,0
19.199,-3.95,-4.8,0
19.219,-4.07,-4.68,0
19.239,-4.19,-4.68,0
19.259,-3.95,-4.68,0
19.279,-3.95,-4.8,0
19.299,-3.95,-4.8,0
19.32,-3.82,-4.8,0
19.34,-3.95,-4.8,0
19.36,-3.82,-4.8,0
19.38,-3.82,-4.68,0
19.4,-3.82,-4.68,0
19.42,-3.82,-4.56,0
19.44,-3.82,-4.68,0
19.46,-3.7,-4.68,0
19.48,-3.58,-4.68,0
19.5,-3.7,-4.68,0
19.52,-3.95,-4.92,0
19.54,-5.17,-5.9,0
19.56,-6.15,-6.76,0
19.58,-6.63,-7.49,0
19.6,-7.0,-8.59,0
19.62,-7.73,-9.32,0
19.64,-8.71,-9.57,0
19.66,-9.32,-9.69,0
19.68,-9.57,-9.81,0
19.7,-9.81,-9.93,0
19.72,-9.81,-9.93,0
19.72,-9.93,-9.93,0
19.74,-9.93,-10.06,0
19.76,-9.93,-10.06,0
19.78,-9.93,-10.06,0
19.8,-10.06,-10.06,0
19.82,-10.06,-10.06,0
19.84,-10.18,-10.06,0
19.86,-10.18,-10.18,0
19.88,-10.18,-10.06,0
19.9,-10.18,-10.06,0
19.92,-10.06,-10.06,0
19.94,-10.18,-10.06,0
19.96,-10.18,-10.06,0
19.98,-10.18,-10.06,0
20.001,-10.18,-10.06,0
20.02,-10.18,-10.18,0
20.04,-10.18,-10.18,0
20.06,-10.18,-10.18,0
20.08,-10.18,-10.18,0
20.1,-10.18,-10.18,0
20.12,-10.18,-10.18,0
20.121,-10.18,-10.18,0
20.141,-10.18,-10.18,0
20.161,-10.18,-10.18,0
20.181,-10.18,-10.18,0
20.201,-10.18,-10.18,1
20.221,-10.18,-10.18,1
20.241,-10.18,-10.18,1
20.261,-10.18,-10.3,1
20.281,-10.18,-10.18,1
20.301,-10.18,-10.18,1
20.321,-10.18,-10.18,1
20.341,-10.18,-10.18,1
20.361,-10.18,-10.3,1
20.381,-10.18,-10.3,1
20.401,-10.3,-10.3,1
20.421,-10.3,-10.3,1
20.441,-10.3,-10.3,1
20.461,-10.18,-10.18,1
20.481,-9.45,-9.57,1
20.501,-8.83,-8.96,1
20.521,-8.35,-7.98,1
20.522,-7.86,-7.25,1
20.543,-6.88,-6.76,1
20.562,-6.39,-6.39,1
20.582,-5.9,-6.15,1
20.602,-5.41,-5.9,1
20.622,-5.17,-5.78,1
20.642,-4.92,-5.54,1
20.662,-4.68,-5.41,1
20.682,-4.56,-5.29,1
20.702,-4.56,-5.29,1
20.722,-4.68,-5.17,1
20.742,-4.68,-5.17,1
20.762,-4.31,-5.17,1
20.782,-4.31,-5.05,0
20.802,-4.07,-5.05,0
20.822,-3.95,-5.17,0
20.842,-4.07,-5.05,0
20.862,-4.07,-5.05,0
20.882,-4.19,-4.92,0
20.902,-4.19,-4.92,0
20.922,-4.07,-4.92,0
20.922,-4.07,-4.92,0
20.942,-3.95,-4.8,0
20.962,-3.82,-4.8,0
20.982,-3.95,-4.8,0
21.002,-3.95,-4.8,0
21.022,-4.07,-4.92,0
21.042,-3.95,-4.92,0
21.062,-3.95,-4.8,0
21.082,-3.95,-4.8,0
21.102,-3.82,-4.8,0
21.122,-3.82,-4.8,0
21.142,-3.82,-4.8,0
21.162,-3.95,-4.8,0
21.182,-4.07,-4.8,0
21.202,-4.07,-4.8,0
21.222,-3.95,-4.92,0
21.242,-3.95,-4.92,0
21.262,-3.82,-5.05,0
21.282,-3.95,-4.92,0
21.302,-3.95,-4.92,0
21.323,-3.82,-4.8,0
21.343,-3.95,-4.8,0
21.363,-3.82,-4.68,0
21.383,-3.82,-4.68,0
21.403,-3.7,-4.68,0
21.423,-3.7,-4.68,0
21.443,-3.95,-4.68,0
21.463,-4.19,-5.05,0
21.483,-5.54,-6.15,0
21.503,-6.27,-6.88,0
21.523,-6.88,-7.61,0
21.543,-7.25,-8.71,0
21.563,-8.1,-9.32,0
21.583,-8.96,-9.57,0
21.603,-9.45,-9.69,0
21.623,-9.69,-9.81,0
21.643,-9.69,-9.93,0
21.663,-9.93,-9.93,0
21.683,-9.93,-9.93,0
21.703,-9.93,-9.93,0
21.723,-9.93,-9.93,0
21.743,-9.93,-10.06,0
21.763,-9.93,-10.06,0
21.783,-10.06,-10.06,0
21.803,-10.06,-10.06,0
21.823,-10.18,-10.06,0
21.843,-10.06,-10.06,0
21.863,-10.18,-10.06,0
21.883,-10.18,-10.06,0
21.903,-10.18,-10.06,0
21.923,-10.18,-10.18,0
21.943,-10.18,-10.18,0
21.963,-10.18,-10.18,0
21.983,-10.18,-10.18,0
22.003,-10.18,-10.18,0
22.023,-10.18,-10.18,0
22.043,-10.18,-10.18,0
22.063,-10.18,-10.18,0
22.083,-10.18,-10.18,0
22.103,-10.3,-10.18,0
22.123,-10.3,-10.18,0
22.124,-10.3,-10.18,0
22.144,-10.18,-10.18,0
22.164,-10.3,-10.18,1
22.184,-10.18,-10.18,1
22.204,-10.18,-10.3,1
22.224,-10.18,-10.3,1
22.244,-10.18,-10.18,1
22.264,-10.18,-10.3,1
22.284,-10.18,-10.18,1
22.304,-10.18,-10.3,1
22.324,-10.18,-10.3,1
22.344,-10.18,-10.18,1
22.364,-10.3,-10.3,1
22.384,-10.3,-10.3,1
22.404,-10.3,-10.3,1
22.424,-10.06,-10.06,1
22.444,-9.45,-9.45,1
22.464,-8.83,-8.83,1
22.484,-8.35,-7.86,1
22.504,-7.73,-7.25,1
22.524,-6.88,-6.76,1
22.526,-6.27,-6.39,1
22.546,-5.9,-6.15,1
22.566,-5.41,-5.9,1
22.586,-5.17,-5.66,1
22.606,-4.92,-5.54,1
22.626,-4.68,-5.41,1
22.646,-4.68,-5.29,1
22.666,-4.56,-5.29,1
22.686,-4.56,-5.17,1
22.706,-4.68,-5.17,1
22.726,-4.31,-5.17,1
22.746,-4.31,-5.17,0
22.766,-4.07,-5.17,0
22.786,-3.95,-5.17,0
22.806,-3.95,-5.05,0
22.826,-4.07,-5.05,0
22.846,-4.19,-4.92,0
22.866,-4.19,-4.92,0
22.886,-4.07,-4.92,0
22.906,-4.07,-4.92,0
22.926,-3.95,-4.92,0
22.946,-3.95,-4.92,0
22.966,-3.95,-4.92,0
22.986,-3.95,-4.92,0
23.006,-4.07,-4.92,0
23.026,-3.95,-4.92,0
23.046,-3.95,-4.92,0
23.066,-3.95,-4.8,0
23.086,-3.82,-4.8,0
23.106,-3.82,-4.8,0
23.126,-3.82,-4.8,0
23.146,-3.95,-4.8,0
23.166,-4.07,-4.68,0
23.186,-3.82,-4.8,0
23.206,-3.82,-4.8,0
23.226,-3.82,-4.8,0
23.246,-3.82,-4.8,0
23.266,-3.82,-4.8,0
23.286,-3.7,-4.8,0
23.306,-3.7,-4.68,0
23.326,-3.82,-4.68,0
23.327,-3.7,-4.68,0
23.347,-3.82,-4.56,0
23.367,-3.7,-4.56,0
23.387,-3.7,-4.56,0
23.407,-3.82,-4.68,0
23.427,-4.31,-5.05,0
23.447,-5.54,-6.15,0
23.467,-6.39,-6.88,0
23.487,-6.88,-7.61,0
23.507,-7.25,-8.71,0
23.527,-8.22,-9.32,0
23.547,-9.08,-9.57,0
23.567,-9.57,-9.69,0
23.587,-9.69,-9.81,0
23.607,-9.81,-9.93,0
23.627,-9.93,-9.93,0
23.647,-9.93,-10.06,0
23.667,-9.93,-10.06,0
23.687,-9.93,-10.06,0
23.707,-10.06,-10.06,0
23.727,-10.06,-10.18,0
23.747,-10.06,-10.18,0
23.767,-10.18,-10.18,0
23.787,-10.06,-10.18,0
23.807,-10.18,-10.18,0
23.827,-10.18,-10.18,0
23.847,-10.06,-10.18,0
23.867,-10.06,-10.18,0
23.887,-10.06,-10.18,0
23.907,-10.18,-10.18,0
23.927,-10.18,-10.18,0
23.947,-10.18,-10.18,0
23.967,-10.18,-10.18,0
23.987,-10.06,-10.18,0
24.007,-10.06,-10.18,0
24.027,-10.06,-10.18,0
24.047,-10.18,-10.18,0
24.067,-10.18,-10.18,0
24.087,-10.18,-10.18,0
24.107,-10.18,-10.18,0
24.128,-10.18,-10.18,0
24.148,-10.18,-10.18,1
24.168,-10.18,-10.3,1
24.188,-10.18,-10.18,1
24.208,-10.3,-10.18,1
24.228,-10.3,-10.18,1
24.248,-10.3,-10.18,1
24.268,-10.3,-10.18,1
24.288,-10.3,-10.3,1
24.308,-10.18,-10.18,1
24.328,-10.3,-10.3,1
24.348,-10.3,-10.3,1
24.368,-10.3,-10.3,1
24.388,-10.3,-10.3,1
24.408,-9.93,-9.93,1
24.428,-9.32,-9.32,1
24.448,-8.71,-8.71,1
24.468,-8.22,-7.73,1
24.488,-7.61,-7.12,1
24.508,-6.76,-6.63,1
24.528,-6.15,-6.39,1
24.529,-5.78,-6.15,1
24.549,-5.29,-5.9,1
24.569,-5.05,-5.66,1
24.589,-4.8,-5.54,1
24.609,-4.56,-5.41,1
24.629,-4.56,-5.29,1
24.649,-4.44,-5.29,1
24.669,-4.56,-5.17,1
24.689,-4.56,-5.17,1
24.709,-4.31,-5.17,0
24.729,-4.19,-5.17,0
24.749,-4.07,-5.17,0
24.769,-3.95,-5.05,0
24.789,-3.95,-5.05,0
24.809,-4.07,-4.92,0
24.829,-4.19,-4.92,0
24.849,-4.19,-4.92,0
24.869,-4.07,-4.92,0
24.889,-4.07,-4.92,0
24.909,-4.07,-4.8,0
24.929,-3.95,-4.8,0
24.949,-3.95,-4.8,0
24.969,-4.07,-4.92,0
24.989,-4.19,-4.92,0
25.009,-4.07,-4.8,0
25.029,-3.95,-4.8,0
25.049,-3.95,-4.68,0
25.069,-3.95,-4.68,0
25.089,-3.95,-4.68,0
25.109,-3.95,-4.68,0
25.129,-4.07,-4.68,0
25.149,-4.07,-4.68,0
25.169,-3.95,-4.68,0
25.189,-3.95,-4.8,0
25.209,-3.95,-4.8,0
25.229,-3.82,-4.8,0
25.249,-3.82,-4.8,0
25.269,-3.82,-4.8,0
25.289,-3.7,-4.68,0
25.309,-3.82,-4.68,0
25.33,-3.7,-4.68,0
25.35,-3.7,-4.68,0
25.37,-3.7,-4.68,0
25.39,-3.58,-4.68,0
25.41,-3.7,-4.8,0
25.43,-4.44,-5.41,0
25.45,-5.66,-6.39,0
25.47,-6.39,-7.12,0
25.49,-6.76,-7.98,0
25.51,-7.25,-8.96,0
25.53,-8.22,-9.45,0
25.55,-9.08,-9.69,0
25.57,-9.57,-9.81,0
25.59,-9.69,-9.93,0
25.61,-9.81,-9.93,0
25.63,-9.93,-9.93,0
25.65,-9.93,-9.93,0
25.67,-9.93,-10.06,0
25.69,-10.06,-10.06,0
25.71,-10.06,-10.06,0
25.73,-10.18,-10.18,0
25.73,-10.18,-10.18,0
25.75,-10.18,-10.18,0
25.77,-10.18,-10.18,0
25.79,-10.18,-10.18,0
25.81,-10.18,-10.18,0
25.83,-10.18,-10.06,0
25.85,-10.18,-10.06,0
25.87,-10.18,-10.06,0
25.89,-10.18,-10.18,0
25.91,-10.18,-10.18,0
25.93,-10.18,-10.18,0
25.95,-10.18,-10.18,0
25.97,-10.18,-10.18,0
25.99,-10.18,-10.18,0
26.01,-10.18,-10.18,0
26.03,-10.18,-10.18,0
26.05,-10.18,-10.18,0
26.07,-10.18,-10.18,0
26.09,-10.18,-10.18,0
26.11,-10.18,-10.18,0
26.13,-10.18,-10.18,1
26.131,-10.18,-10.18,1
26.151,-10.18,-10.3,1
26.171,-10.18,-10.18,1
26.191,-10.18,-10.3,1
26.211,-10.18,-10.3,1
26.231,-10.18,-10.3,1
26.251,-10.3,-10.3,1
26.271,-10.18,-10.3,1
26.291,-10.3,-10.3,1
26.311,-10.3,-10.3,1
26.331,-10.3,-10.3,1
26.351,-10.3,-10.3,1
26.371,-9.81,-9.81,1
26.391,-9.2,-9.2,1
26.411,-8.59,-8.59,1
26.431,-8.22,-7.61,1
26.451,-7.37,-7.0,1
26.471,-6.63,-6.63,1
26.491,-6.02,-6.27,1
26.511,-5.66,-6.02,1
26.531,-5.29,-5.78,1
26.534,-5.05,-5.66,1
26.554,-4.8,-5.54,1
26.574,-4.68,-5.41,1
26.594,-4.56,-5.29,1
26.614,-4.56,-5.17,1
26.634,-4.56,-5.17,1
26.655,-4.56,-5.05,1
26.674,-4.31,-5.05,0
26.694,-4.19,-5.05,0
26.714,-4.07,-5.05,0
26.734,-3.95,-4.92,0
26.754,-3.95,-4.92,0
26.774,-4.07,-4.92,0
26.794,-4.07,-4.92,0
26.814,-4.19,-4.92,0
26.834,-4.07,-4.92,0
26.854,-4.07,-4.8,0
26.874,-3.95,-4.8,0
26.894,-3.82,-4.8,0
26.914,-3.82,-4.92,0
26.934,-3.95,-4.92,0
26.954,-4.07,-4.92,0
26.974,-3.95,-4.92,0
26.994,-3.95,-4.8,0
27.014,-3.95,-4.8,0
27.034,-3.95,-4.8,0
27.054,-3.82,-4.8,0
27.074,-3.95,-4.8,0
27.094,-4.07,-4.8,0
27.114,-4.07,-4.8,0
27.134,-3.95,-4.8,0
27.154,-3.95,-4.8,0
27.174,-3.95,-4.92,0
27.194,-3.95,-4.92,0
27.214,-3.82,-4.8,0
27.234,-3.82,-4.8,0
27.254,-3.82,-4.68,0
27.274,-3.82,-4.68,0
27.294,-3.82,-4.68,0
27.315,-3.82,-4.68,0
27.334,-3.82,-4.68,0
27.335,-3.82,-4.68,0
27.355,-3.82,-4.68,0
27.375,-4.8,-5.54,0
27.395,-5.9,-6.51,0
27.415,-6.63,-7.12,0
27.435,-7.0,-8.22,0
27.455,-7.61,-9.08,0
27.475,-8.59,-9.45,0
27.495,-9.2,-9.69,0
27.515,-9.57,-9.81,0
27.535,-9.69,-9.81,0
27.555,-9.81,-9.81,0
27.575,-9.93,-9.93,0
27.595,-9.93,-9.93,0
27.615,-9.93,-9.93,0
27.635,-9.93,-9.93,0
27.655,-10.06,-10.06,0
27.675,-10.06,-10.06,0
27.695,-10.06,-10.06,0
27.715,-10.06,-10.18,0
27.735,-10.18,-10.18,0
27.735,-10.06,-10.18,0
27.755,-10.06,-10.18,0
27.775,-10.18,-10.18,0
27.795,-10.18,-10.18,0
27.819,-10.18,-10.18,0
27.843,-10.18,-10.18,0
27.868,-10.18,-10.18,0
27.888,,,
27.895,-10.18,-10.18,0
27.915,,,
27.935,-10.3,-10.18,0
27.955,-10.3,-10.18,0
27.975,-10.18,-10.18,0
27.995,-10.18,-10.3,0
28.015,-10.18,-10.18,0
28.036,-10.18,-10.18,0
28.056,,,
28.075,-10.3,-10.18,0
28.095,-10.18,-10.18,0
28.115,-10.3,-10.18,1
28.136,-10.3,-10.18,1
28.156,-10.18,-10.3,1
28.179,-10.18,-10.18,1
28.2,,,
28.216,-10.18,-10.3,1
28.236,-10.3,-10.3,1
28.256,-10.18,-10.3,1
28.276,-10.18,-10.3,1
28.298,-10.3,-10.3,1
28.322,-10.3,-10.3,1
28.347,-10.3,-10.3,1
28.368,,,
28.376,-10.3,-10.3,1
28.396,,,
28.416,-10.3,-10.3,1
28.436,-10.3,-10.3,1
28.456,-9.69,-9.69,1
28.476,-9.08,-9.2,1
28.496,-8.59,-8.47,1
28.516,-8.1,-7.49,1
28.536,-7.37,-7.0,1
28.556,-6.63,-6.51,1
28.576,-6.02,-6.27,1
28.596,,,
28.616,-5.54,-6.02,1
28.636,-5.29,-5.78,1
28.656,-5.05,-5.66,1
28.676,-4.92,-5.54,1
28.696,-4.68,-5.41,1
28.716,-4.68,-5.29,1
28.736,-4.68,-5.17,1
28.756,-4.56,-5.17,1
28.776,-4.44,-5.17,1
28.796,-4.19,-5.05,0
28.816,-4.31,-5.05,0
28.836,-4.19,-5.05,0
28.856,,,
28.876,-4.07,-5.05,0
28.896,-4.07,-5.05,0
28.916,-4.19,-5.05,0
28.936,-4.07,-4.92,0
28.945,-4.07,-4.92,0
28.965,-4.07,-4.92,0
28.986,,,
29.005,-4.07,-4.92,0
29.025,-4.07,-4.92,0
29.045,-3.95,-4.92,0
29.065,-4.07,-4.92,0
29.085,-3.95,-4.92,0
29.105,-3.95,-4.92,0
29.125,-3.95,-4.92,0
29.145,-3.95,-4.8,0
29.165,-3.95,-4.8,0
29.187,-3.82,-4.8,0
29.207,-3.82,-4.68,0
29.228,-3.95,-4.8,0
29.252,-3.95,-4.68,0
29.273,-3.95,-4.8,0
29.293,-3.82,-4.8,0
29.318,-3.95,-4.8,0
29.338,-3.95,-4.8,0
29.359,-3.82,-4.8,0
29.383,-3.82,-4.8,0
29.404,-3.82,-4.68,0
29.424,,,
29.439,-3.7,-4.56,0
29.459,-3.82,-4.56,0
29.479,-3.7,-4.56,0
29.499,-3.82,-4.56,0
29.519,-3.82,-4.56,0
29.539,-3.82,-4.68,0
29.559,,,
29.579,-3.95,-4.68,0
29.599,-4.92,-5.66,0
29.619,-6.02,-6.51,0
29.639,-6.76,-7.25,0
29.659,-7.12,-8.35,0
29.679,-7.73,-9.08,0
29.699,-8.71,-9.57,0
29.719,-9.32,-9.69,0
29.739,-9.69,-9.81,0
29.759,-9.81,-9.93,0
29.777,-9.93,-9.93,0
29.797,-9.93,-10.06,0
29.821,-9.93,-10.06,0
29.842,-9.93,-10.06,0
29.866,-10.06,-10.06,0
29.891,-10.06,-10.18,0
29.916,-10.06,-10.18,0
29.936,,,
29.937,,,
29.957,-10.06,-10.18,0
29.977,-10.18,-10.18,0
29.997,-10.18,-10.18,0
30.017,-10.06,-10.18,0
30.037,-10.18,-10.18,0
30.059,-10.18,-10.18,0
30.08,,,
30.097,-10.18,-10.18,0
30.117,-10.18,-10.18,0
30.137,-10.18,-10.18,0
30.157,-10.18,-10.18,0
30.178,-10.18,-10.18,0
30.202,-10.18,-10.18,0
30.227,-10.18,-10.18,0
30.247,,,
30.258,-10.18,-10.18,0
30.278,-10.18,-10.18,0
30.298,-10.18,-10.18,0
30.321,-10.18,-10.18,0
30.346,-10.18,-10.18,0
30.37,-10.18,-10.18,0
30.391,,,
30.398,-10.3,-10.18,1
30.418,,,
30.438,-10.3,-10.18,1
30.458,-10.18,-10.18,1
30.478,-10.18,-10.18,1
30.498,-10.3,-10.18,1
30.518,-10.3,-10.3,1
30.538,-10.18,-10.3,1
30.559,,,
30.579,-10.3,-10.3,1
30.599,-10.3,-10.18,1
30.619,-10.3,-10.3,1
30.639,-10.3,-10.3,1
30.659,-10.3,-10.3,1
30.682,-10.3,-10.3,1
30.706,-10.18,-10.18,1
30.727,,,
30.739,-9.57,-9.57,1
30.759,-8.96,-9.08,1
30.779,-8.47,-8.22,1
30.799,-7.98,-7.37,1
30.819,-7.12,-6.88,1
30.839,-6.39,-6.51,1
30.859,,,
30.879,-5.9,-6.27,1
30.899,-5.41,-6.02,1
30.919,-5.17,-5.78,1
30.939,-4.92,-5.66,1
30.959,-4.8,-5.54,1
30.979,-4.56,-5.41,1
30.999,-4.56,-5.29,1
31.019,-4.68,-5.17,1
31.039,-4.56,-5.17,1
31.059,-4.31,-5.17,1
31.079,-4.31,-5.17,0
31.099,-4.19,-5.17,0
31.12,,,
31.139,-4.07,-5.05,0
31.159,-3.95,-5.05,0
31.179,-4.07,-4.92,0
31.199,-4.19,-4.92,0
31.219,-4.07,-4.92,0
31.239,-4.07,-4.92,0
31.259,-4.07,-4.8,0
31.279,-4.19,-4.92,0
31.299,-4.07,-4.92,0
31.32,-3.95,-4.8,0
31.341,-4.07,-4.92,0
31.361,-4.07,-4.8,0
31.386,-3.95,-4.8,0
31.406,-3.95,-4.8,0
31.427,,,
31.446,-3.95,-4.8,0
31.466,-3.95,-4.8,0
31.486,-3.95,-4.68,0
31.506,-3.95,-4.68,0
31.526,-4.07,-4.68,0
31.546,-4.07,-4.68,0
31.566,-3.95,-4.8,0
31.586,-3.95,-4.8,0
31.606,-3.95,-4.8,0
31.626,,,
31.646,-3.95,-4.8,0
31.666,-3.82,-4.8,0
31.686,-3.82,-4.8,0
31.706,-3.82,-4.8,0
31.726,-3.82,-4.68,0
31.746,-3.82,-4.68,0
31.766,-3.7,-4.68,0
31.786,-3.7,-4.68,0
31.8,-3.7,-4.68,0
31.82,,,
31.84,-3.7,-4.68,0
31.86,-3.95,-4.92,0
31.88,-5.17,-6.02,0
31.9,-6.15,-6.88,0
31.92,-6.76,-7.49,0
31.94,-7.12,-8.71,0
31.96,-7.86,-9.32,0
31.98,-8.83,-9.57,0
32.0,-9.45,-9.69,0
32.02,,,
32.04,-9.69,-9.81,0
32.06,-9.81,-9.93,0
32.08,-9.93,-9.93,0
32.1,-9.93,-9.93,0
32.12,-9.93,-10.06,0
32.14,-10.06,-10.06,0
32.16,-10.06,-10.06,0
32.18,-10.18,-10.06,0
32.201,-10.18,-10.06,0
32.225,-10.18,-10.06,0
32.25,-10.18,-10.06,0
32.271,,,
32.281,-10.18,-10.06,0
32.301,-10.18,-10.06,0
32.321,-10.18,-10.06,0
32.344,-10.18,-10.06,0
32.369,-10.18,-10.18,0
32.394,-10.18,-10.18,0
32.418,-10.18,-10.18,0
32.439,,,
32.441,,,
32.461,-10.18,-10.18,0
32.481,-10.18,-10.18,0
32.501,-10.18,-10.18,0
32.521,-10.18,-10.18,0
32.541,-10.18,-10.18,0
32.561,-10.18,-10.18,0
32.586,-10.18,-10.18,0
32.607,,,
32.627,-10.18,-10.18,0
32.647,-10.18,-10.18,0
32.667,-10.18,-10.18,0
32.687,-10.3,-10.18,1
32.707,-10.18,-10.3,1
32.729,-10.18,-10.18,1
32.75,,,
32.767,-10.18,-10.3,1
32.787,-10.18,-10.3,1
32.807,-10.18,-10.3,1
32.827,-10.18,-10.3,1
32.848,-10.3,-10.3,1
32.872,-10.3,-10.3,1
32.897,-10.3,-10.3,1
32.918,,,
32.927,-10.3,-10.3,1
32.947,-10.3,-10.3,1
32.967,-10.3,-10.3,1
32.991,-10.06,-10.06,1
33.016,-9.32,-9.32,1
33.036,-8.83,-8.83,1
33.057,,,
33.076,-8.35,-7.86,1
33.096,-7.73,-7.12,1
33.116,-6.88,-6.76,1
33.136,-6.27,-6.39,1
33.156,-5.66,-6.15,1
33.176,-5.29,-5.9,1
33.196,-5.05,-5.66,1
33.216,-4.92,-5.54,1
33.236,-4.68,-5.41,1
33.258,-4.56,-5.29,1
33.278,-4.56,-5.17,1
33.298,-4.68,-5.17,1
33.323,-4.56,-5.17,1
33.344,-4.31,-5.17,1
33.364,-4.31,-5.05,0
33.389,-4.19,-5.05,0
33.41,-4.07,-5.05,0
33.43,-3.95,-5.05,0
33.454,-4.07,-5.05,0
33.475,-4.19,-4.92,0
33.495,,,
33.51,-4.19,-4.92,0
33.53,-4.07,-4.92,0
33.55,-4.07,-4.92,0
33.57,-4.07,-4.92,0
33.59,-3.95,-4.92,0
33.61,-3.82,-4.92,0
33.63,-3.95,-4.92,0
33.651,-4.07,-4.8,0
33.671,-3.95,-4.92,0
33.694,,,
33.711,-3.95,-4.92,0
33.73,-3.95,-4.8,0
33.75,-3.95,-4.8,0
33.77,-3.82,-4.8,0
33.79,-3.95,-4.8,0
33.811,-4.07,-4.8,0
33.831,-4.07,-4.8,0
33.851,-4.07,-4.8,0
33.871,-4.07,-4.8,0
33.891,,,
33.911,-4.07,-4.92,0
33.931,-4.07,-4.92,0
33.951,-3.95,-4.8,0
33.971,-3.95,-4.8,0
33.991,-3.95,-4.68,0
34.011,-3.95,-4.68,0
34.031,-3.95,-4.68,0
34.051,-3.82,-4.68,0
34.071,-3.82,-4.68,0
34.091,-3.82,-4.68,0
34.111,-3.95,-4.68,0
34.131,-4.44,-5.29,0
34.151,,,
34.171,-5.66,-6.27,0
34.191,-6.51,-6.88,0
34.211,-7.0,-7.73,0
34.231,-7.25,-8.83,0
34.251,-8.22,-9.32,0
34.271,-9.08,-9.57,0
34.291,-9.57,-9.69,0
34.311,-9.69,-9.81,0
34.331,-9.69,-9.81,0
34.351,-9.81,-9.93,0
34.372,-9.81,-9.93,0
34.392,-9.93,-9.93,0
34.417,-9.93,-10.06,0
34.437,-9.93,-10.06,0
34.462,-10.06,-10.06,0
34.486,-10.06,-10.06,0
34.507,,,
34.511,-10.06,-10.06,0
34.531,,,
34.551,-10.06,-10.06,0
34.571,-10.06,-10.18,0
34.591,-10.06,-10.18,0
34.611,-10.18,-10.18,0
34.632,-10.18,-10.06,0
34.654,-10.18,-10.06,0
34.675,,,
34.692,-10.18,-10.06,0
34.712,-10.18,-10.06,0
34.732,-10.18,-10.18,0
34.752,-10.18,-10.18,0
34.774,-10.18,-10.18,0
34.798,-10.18,-10.18,0
34.818,,,
34.832,-10.06,-10.18,0
34.852,-10.18,-10.18,0
34.872,-10.18,-10.18,0
34.892,-10.18,-10.18,0
34.916,-10.18,-10.18,0
34.941,-10.18,-10.18,0
34.966,-10.18,-10.18,1
34.986,,,
34.992,-10.18,-10.18,1
35.012,-10.18,-10.18,1
35.035,-10.18,-10.18,1
35.06,-10.18,-10.18,1
35.084,-10.18,-10.18,1
35.109,-10.18,-10.18,1
35.129,,,
35.135,-10.18,-10.18,1
35.155,,,
35.175,-10.18,-10.18,1
35.195,-10.18,-10.18,1
35.215,-10.3,-10.3,1
35.235,-10.3,-10.18,1
35.255,-10.18,-10.18,1
35.277,-9.93,-9.93,1
35.297,-9.2,-9.32,1
35.318,,,
35.335,-8.71,-8.71,1
35.355,-8.22,-7.86,1
35.375,-7.61,-7.12,1
35.395,-6.76,-6.63,1
35.415,-6.15,-6.39,1
35.436,-5.78,-6.15,1
35.456,-5.29,-5.9,1
35.476,-5.17,-5.66,1
35.496,-4.92,-5.54,1
35.516,,,
35.536,-4.8,-5.54,1
35.556,-4.68,-5.41,1
35.576,-4.68,-5.29,1
35.596,-4.68,-5.29,1
35.616,-4.68,-5.17,1
35.636,-4.44,-5.17,0
35.656,-4.31,-5.17,0
35.676,-4.31,-5.17,0
35.696,-4.19,-5.17,0
35.716,-4.19,-5.05,0
35.736,-4.31,-5.05,0
35.756,-4.31,-5.05,0
35.777,,,
35.796,-4.31,-4.92,0
35.816,-4.19,-4.92,0
35.836,-4.31,-4.92,0
35.856,-4.31,-4.92,0
35.876,-4.07,-4.92,0
35.896,-4.07,-4.92,0
35.916,-4.19,-4.92,0
35.936,-4.07,-4.92,0
35.956,-4.07,-4.92,0
35.976,,,
35.996,-4.07,-4.92,0
36.016,-4.07,-4.8,0
36.036,-4.07,-4.8,0
36.056,-3.95,-4.8,0
36.076,-4.07,-4.8,0
36.096,-4.19,-4.8,0
36.116,-4.07,-4.68,0
36.136,-4.07,-4.68,0
36.156,-3.95,-4.8,0
36.176,-4.07,-4.8,0
36.196,-3.95,-4.8,0
36.216,-3.82,-4.8,0
36.24,-3.82,-4.68,0
36.26,-3.82,-4.68,0
36.28,-3.82,-4.68,0
36.305,-3.82,-4.68,0
36.325,-3.82,-4.68,0
36.346,-3.82,-4.68,0
36.37,-3.82,-4.68,0
36.391,-3.95,-4.68,0
36.411,,,
36.42,-4.56,-5.29,0
36.44,-5.78,-6.39,0
36.46,-6.51,-7.0,0
36.48,,,
36.5,-7.0,-7.86,0
36.52,-7.49,-8.96,0
36.54,-8.35,-9.45,0
36.56,-9.2,-9.69,0
36.58,-9.57,-9.81,0
36.6,-9.81,-9.93,0
36.62,-9.81,-9.93,0
36.64,-10.06,-10.06,0
36.658,-10.06,-10.06,0
36.678,,,
36.698,-10.06,-10.18,0
36.718,-10.18,-10.18,0
36.738,-10.18,-10.18,0
36.758,-10.18,-10.18,0
36.778,-10.18,-10.3,0
36.8,-10.3,-10.3,0
36.821,,,
36.838,-10.3,-10.3,0
36.858,-10.18,-10.3,0
36.878,-10.3,-10.3,0
36.898,-10.3,-10.3,0
36.919,-10.3,-10.3,0
36.944,-10.3,-10.3,0
36.968,-10.3,-10.3,0
36.989,,,
36.998,-10.3,-10.3,0
37.018,-10.3,-10.3,0
37.038,-10.3,-10.3,0
37.063,-10.3,-10.3,0
37.087,-10.3,-10.3,0
37.111,-10.3,-10.3,0
37.132,,,
37.143,-10.3,-10.42,0
37.163,-10.3,-10.3,0
37.183,-10.3,-10.42,0
37.206,-10.3,-10.42,0
37.23,-10.42,-10.42,1
37.255,-10.3,-10.42,1
37.28,-10.3,-10.42,1
37.3,,,
37.303,,,
37.323,-10.3,-10.42,1
37.343,-10.3,-10.42,1
37.363,-10.3,-10.42,1
37.383,-10.3,-10.42,1
37.403,-10.42,-10.42,1
37.423,-10.42,-10.42,1
37.447,-10.3,-10.42,1
37.468,,,
37.488,-10.42,-10.42,1
37.508,-10.42,-10.42,1
37.528,-10.42,-10.42,1
37.549,-10.3,-10.42,1
37.568,-9.81,-9.81,1
37.588,-9.2,-9.32,1
37.608,,,
37.628,-8.71,-8.59,1
37.648,-8.22,-7.61,1
37.67,-7.25,-7.0,1
37.688,-6.63,-6.51,1
37.709,-6.02,-6.27,1
37.728,-5.54,-6.02,1
37.748,-5.29,-5.78,1
37.768,-5.05,-5.54,1
37.788,-4.8,-5.41,1
37.809,,,
37.828,-4.68,-5.29,1
37.848,-4.44,-5.17,1
37.869,-4.56,-5.05,1
37.889,-4.56,-5.05,1
37.909,-4.31,-5.05,1
37.929,-4.31,-5.05,0
37.949,-4.19,-4.92,0
37.969,-4.07,-4.92,0
37.989,-4.07,-4.92,0
38.009,-3.95,-4.8,0
38.029,-4.19,-4.68,0
38.049,-4.07,-4.68,0
38.07,-4.07,-4.68,0
38.091,-4.07,-4.68,0
38.111,,,
38.129,-4.19,-4.68,0
38.149,-4.19,-4.68,0
38.169,-3.95,-4.68,0
38.189,-4.07,-4.68,0
38.209,-4.07,-4.68,0
38.229,-4.07,-4.68,0
38.249,-4.07,-4.68,0
38.269,-4.07,-4.56,0
38.289,-4.07,-4.56,0
38.309,,,
38.329,-3.95,-4.56,0
38.349,-3.95,-4.56,0
38.369,-4.07,-4.56,0
38.389,-4.19,-4.56,0
38.409,-4.07,-4.56,0
38.429,-4.07,-4.56,0
38.449,-4.19,-4.68,0
38.469,-4.19,-4.68,0
38.489,-4.07,-4.68,0
38.51,-3.95,-4.56,0
38.529,-3.95,-4.56,0
38.549,-3.95,-4.44,0
38.57,,,
38.589,-3.95,-4.44,0
38.609,-3.95,-4.44,0
38.629,-3.95,-4.44,0
38.651,-3.95,-4.44,0
38.669,-4.07,-4.44,0
38.68,-4.07,-4.56,0
38.701,,,
38.72,-5.17,-5.66,0
38.74,-6.27,-6.51,0
38.76,-6.76,-7.12,0
38.78,-7.12,-8.35,0
38.8,-7.86,-9.2,0
38.82,-8.83,-9.57,0
38.84,-9.45,-9.81,0
38.86,-9.69,-9.93,0
38.88,-9.81,-10.06,0
38.901,-9.93,-10.06,0
38.922,,,
38.94,-9.93,-10.06,0
38.96,-9.93,-10.18,0
38.98,-10.06,-10.18,0
39.0,-10.06,-10.18,0
39.02,-10.06,-10.3,0
39.041,-10.06,-10.3,0
39.065,-10.18,-10.3,0
