Time (s),Pressure 1 (kPa),Pressure 2 (kPa),Switch State
0.11,-7.61,-7.86,1
0.13,-7.61,-7.86,1
0.15,-7.61,-7.86,1
0.17,-7.61,-7.86,1
0.19,-7.49,-7.86,1
0.21,-7.61,-7.86,1
0.23,-7.61,-7.98,1
0.25,-7.49,-7.98,1
0.27,-7.49,-7.86,1
0.29,-7.49,-7.86,1
0.31,-7.49,-7.86,1
0.33,-7.49,-7.86,1
0.35,-7.61,-7.86,1
0.37,-7.49,-7.86,1
0.39,-7.49,-7.86,1
0.41,-7.61,-7.86,1
0.43,-7.49,-7.86,1
0.45,-7.49,-7.86,1
0.47,-7.49,-7.86,1
0.49,-7.49,-7.86,1
0.51,-7.49,-7.86,1
0.53,-7.49,-7.86,1
0.55,-7.61,-7.86,1
0.57,-7.49,-7.86,1
0.59,-7.49,-7.86,1
0.61,-7.49,-7.86,1
0.63,-7.49,-7.86,1
0.65,-7.61,-7.86,1
0.67,-7.49,-7.86,1
0.69,-7.49,-7.86,1
0.71,-7.61,-7.86,1
0.73,-7.49,-7.98,1
0.75,-7.49,-7.86,1
0.77,-7.49,-7.86,1
0.79,-7.49,-7.86,1
0.81,-7.49,-7.98,1
0.83,-7.49,-7.86,1
0.85,-7.49,-7.86,1
0.87,-7.49,-7.86,1
0.89,-7.61,-7.86,1
0.911,-7.61,-7.86,1
0.931,-7.49,-7.86,1
0.951,-7.49,-7.86,1
0.971,-7.49,-7.86,1
0.991,-7.49,-7.86,1
1.011,-7.61,-7.98,1
1.031,-7.49,-7.86,1
1.051,-7.49,-7.86,1
1.071,-7.61,-7.86,1
1.091,-7.61,-7.86,1
1.111,-7.61,-7.86,1
1.131,-7.61,-7.86,1
1.151,-7.61,-7.86,1
1.171,-7.61,-7.98,1
1.191,-7.61,-7.86,1
1.211,-7.61,-7.98,1
1.231,-7.61,-7.86,1
1.251,-7.49,-7.86,1
1.271,-7.61,-7.86,1
1.291,-7.61,-7.98,1
1.312,-7.61,-7.98,1
1.332,-7.61,-7.86,1
1.352,-7.49,-7.86,1
1.372,-7.61,-7.86,1
1.392,-7.61,-7.86,1
1.412,-7.61,-7.86,1
1.432,-7.49,-7.98,1
1.452,-7.61,-7.98,1
1.472,-7.49,-7.86,1
1.492,-7.61,-7.98,1
1.512,-7.61,-7.86,1
1.532,-7.49,-7.86,1
1.552,-7.61,-7.86,1
1.572,-7.61,-7.86,1
1.592,-7.61,-7.86,1
1.612,-7.61,-7.86,1
1.632,-7.61,-7.86,1
1.652,-7.61,-7.86,1
1.672,-7.61,-7.98,1
1.692,-7.61,-7.86,1
1.712,-7.61,-7.86,1
1.732,-7.61,-7.86,1
1.752,-7.61,-7.86,1
1.772,-7.61,-7.86,1
1.792,-7.61,-7.86,1
1.812,-7.61,-7.98,1
1.832,-7.49,-7.86,1
1.852,-7.61,-7.86,1
1.872,-7.61,-7.86,1
1.892,-7.61,-7.86,1
1.912,-7.61,-7.86,1
1.932,-7.61,-7.86,1
1.952,-7.61,-7.86,1
1.972,-7.61,-7.98,1
1.992,-7.61,-7.86,1
2.012,-7.61,-7.86,1
2.032,-7.61,-7.86,1
2.052,-7.61,-7.86,1
2.072,-7.61,-7.86,1
2.092,-7.61,-7.86,1
2.112,-7.49,-7.86,1
2.113,-7.61,-7.98,1
2.133,-7.61,-7.86,1
2.153,-7.61,-7.86,1
2.173,-7.61,-7.86,1
2.193,-7.61,-7.86,1
2.213,-7.49,-7.86,1
2.233,-7.61,-7.86,1
2.253,-7.61,-7.86,1
2.273,-7.61,-7.86,1
2.293,-7.61,-7.86,1
2.313,-7.61,-7.86,1
2.333,-7.49,-7.86,1
2.353,-7.49,-7.86,1
2.373,-7.61,-7.86,1
2.393,-7.49,-7.86,1
2.413,-7.61,-7.86,1
2.433,-7.61,-7.98,1
2.453,-7.61,-7.86,1
2.473,-7.61,-7.86,1
2.493,-7.61,-7.86,1
2.513,-7.61,-7.98,1
2.533,-7.61,-7.86,1
2.553,-7.61,-7.86,1
2.573,-7.61,-7.86,1
2.593,-7.49,-7.98,1
2.613,-7.61,-7.86,1
2.633,-7.49,-7.98,1
2.653,-7.61,-7.98,1
2.673,-7.61,-7.86,1
2.693,-7.61,-7.86,1
2.713,-7.61,-7.86,1
2.733,-7.49,-7.86,1
2.753,-7.49,-7.86,1
2.773,-7.49,-7.86,1
2.793,-7.49,-7.86,1
2.813,-7.49,-7.86,1
2.833,-7.61,-7.86,1
2.853,-7.49,-7.86,1
2.873,-7.61,-7.86,1
2.893,-7.61,-7.86,1
2.913,-7.49,-7.86,1
2.933,-7.61,-7.86,1
2.953,-7.61,-7.86,1
2.973,-7.61,-7.86,1
2.993,-7.61,-7.86,1
3.013,-7.61,-7.86,1
3.033,-7.61,-7.86,1
3.053,-7.61,-7.86,1
3.073,-7.61,-7.98,1
3.093,-7.49,-7.86,1
3.113,-7.61,-7.86,1
3.133,-7.49,-7.98,1
3.153,-7.61,-7.98,1
3.173,-7.61,-7.86,1
3.193,-7.49,-7.86,1
3.213,-7.61,-7.86,1
3.233,-7.49,-7.86,1
3.253,-7.49,-7.86,1
3.273,-7.61,-7.98,1
3.293,-7.49,-7.86,1
3.313,-7.49,-7.86,1
3.314,-7.49,-7.86,1
3.334,-7.49,-7.98,1
3.354,-7.49,-7.86,1
3.374,-7.37,-7.98,1
3.394,-7.25,-7.86,1
3.414,-7.25,-7.86,1
3.434,-7.25,-7.86,1
3.454,-7.37,-7.86,1
3.474,-7.37,-7.86,1
3.494,-7.37,-7.86,1
3.514,-7.49,-7.86,1
3.534,-7.49,-7.86,1
3.554,-7.49,-7.86,1
3.574,-7.49,-7.86,1
3.594,-7.49,-7.86,1
3.614,-7.49,-7.86,1
3.634,-7.49,-7.86,1
3.654,-7.49,-7.86,1
3.674,-7.49,-7.86,1
3.694,-7.49,-7.98,1
3.715,-7.49,-7.86,1
3.735,-7.49,-7.86,1
3.755,-7.49,-7.98,1
3.775,-7.49,-8.47,1
3.795,-7.49,-8.83,1
3.815,-7.49,-8.71,1
3.835,-7.49,-8.47,1
3.855,-7.49,-8.35,1
3.875,-7.49,-8.22,1
3.895,-7.49,-8.1,1
3.915,-7.49,-7.98,1
3.935,-7.49,-7.98,1
3.955,-7.49,-7.98,1
3.975,-7.49,-7.98,1
3.995,-7.61,-7.98,1
4.015,-7.49,-7.98,1
4.035,-7.49,-7.98,1
4.055,-7.49,-7.98,1
4.075,-7.61,-7.98,1
4.095,-7.49,-7.86,1
4.115,-7.61,-7.98,1
4.115,-7.49,-7.86,1
4.135,-7.49,-7.86,1
4.155,-7.49,-7.98,1
4.175,-7.49,-7.86,1
4.195,-7.61,-7.98,1
4.215,-7.61,-7.98,1
4.235,-7.61,-7.98,1
4.255,-7.61,-7.86,1
4.275,-7.49,-7.98,1
4.295,-7.61,-7.98,1
4.315,-7.61,-7.98,1
4.335,-7.61,-7.98,1
4.355,-7.61,-7.98,1
4.375,-7.61,-7.98,1
4.395,-7.61,-7.98,1
4.415,-7.61,-7.98,1
4.435,-7.61,-7.98,1
4.455,-7.61,-7.98,1
4.475,-7.61,-7.98,1
4.495,-7.49,-7.98,1
4.516,-7.61,-7.98,1
4.536,-7.61,-7.98,1
4.556,-7.61,-7.98,1
4.576,-7.61,-7.98,1
4.596,-7.61,-7.86,1
4.616,-7.49,-7.98,1
4.636,-7.25,-7.98,1
4.656,-6.51,-7.73,1
4.676,-5.9,-7.12,1
4.696,-5.54,-6.76,1
4.716,-5.17,-6.51,1
4.736,-5.05,-6.27,1
4.756,-4.92,-6.02,1
4.776,-4.8,-5.66,1
4.796,-4.68,-5.54,1
4.816,-4.44,-5.41,1
4.836,-4.31,-5.29,1
4.856,-4.19,-5.17,1
4.876,-4.19,-5.05,1
4.896,-4.19,-4.92,1
4.916,-4.31,-4.8,1
4.916,-4.19,-4.92,1
4.936,-3.95,-5.05,1
4.956,-3.82,-5.29,0
4.976,-4.07,-5.41,0
4.996,-4.19,-5.17,0
5.016,-4.31,-4.92,0
5.036,-4.07,-4.68,0
5.056,-4.07,-4.68,0
5.076,-3.82,-4.68,0
5.096,-3.7,-4.68,0
5.116,-3.7,-4.68,0
5.136,-3.82,-4.68,0
5.156,-3.82,-4.56,0
5.176,-3.82,-4.68,0
5.196,-3.82,-4.8,0
5.216,-3.95,-4.8,0
5.236,-4.07,-4.8,0
5.256,-4.07,-4.56,0
5.276,-3.95,-4.56,0
5.296,-3.7,-4.68,0
5.316,-3.7,-4.56,0
5.317,-3.7,-4.56,0
5.337,-3.7,-4.56,0
5.357,-3.82,-4.56,0
5.377,-3.95,-4.56,0
5.397,-3.82,-4.56,0
5.417,-3.82,-4.68,0
5.437,-3.82,-4.68,0
5.457,-3.82,-4.56,0
5.477,-3.82,-4.56,0
5.497,-3.7,-4.56,0
5.517,-3.7,-4.56,0
5.537,-3.7,-4.56,0
5.557,-3.7,-4.44,0
5.577,-3.7,-4.44,0
5.597,-3.58,-4.44,0
5.617,-3.58,-4.44,0
5.637,-3.7,-4.56,0
5.657,-3.7,-4.56,0
5.677,-4.68,-5.41,0
5.697,-5.66,-6.27,0
5.718,-6.39,-6.88,0
5.738,-6.76,-7.98,0
5.758,-7.49,-8.83,0
5.778,-8.47,-9.32,0
5.798,-9.08,-9.57,0
5.818,-9.45,-9.69,0
5.838,-9.57,-9.81,0
5.858,-9.81,-9.93,0
5.878,-9.81,-9.93,0
5.898,-9.93,-9.93,0
5.918,-9.93,-10.06,0
5.938,-10.06,-10.06,0
5.958,-10.06,-10.06,0
5.978,-10.06,-10.06,0
5.998,-10.06,-10.18,0
6.018,-10.18,-10.06,0
6.038,-10.18,-10.18,0
6.058,-10.18,-10.18,0
6.078,-10.18,-10.18,0
6.098,-10.18,-10.18,0
6.118,-10.18,-10.18,0
6.138,-10.06,-10.18,0
6.158,-10.06,-10.18,0
6.178,-10.18,-10.18,0
6.198,-10.3,-10.18,0
6.218,-10.3,-10.3,0
6.238,-10.3,-10.3,0
6.258,-10.18,-10.18,0
6.278,-10.3,-10.3,0
6.298,-10.3,-10.3,0
6.318,-10.3,-10.3,0
6.338,-10.3,-10.18,0
6.358,-10.3,-10.3,0
6.378,-10.18,-10.3,0
6.398,-10.18,-10.18,0
6.418,-10.3,-10.18,1
6.438,-10.3,-10.3,1
6.458,-10.3,-10.42,1
6.478,-10.3,-10.3,1
6.498,-10.3,-10.3,1
6.518,-10.3,-10.3,1
6.519,-10.3,-10.3,1
6.539,-10.3,-10.3,1
6.559,-10.3,-10.3,1
6.579,-10.3,-10.3,1
6.599,-10.3,-10.3,1
6.619,-10.3,-10.3,1
6.639,-10.3,-10.42,1
6.659,-10.3,-10.42,1
6.679,-9.93,-9.93,1
6.699,-9.32,-9.32,1
6.719,-8.71,-8.59,1
6.739,-8.35,-7.73,1
6.759,-7.61,-7.25,1
6.779,-6.76,-6.88,1
6.799,-6.27,-6.51,1
6.819,-5.9,-6.27,1
6.839,-5.54,-5.9,1
6.859,-5.29,-5.66,1
6.879,-4.92,-5.54,1
6.899,-4.68,-5.41,1
6.92,-4.56,-5.29,1
6.94,-4.44,-5.17,1
6.96,-4.44,-5.05,1
6.98,-4.56,-5.05,1
7,-4.56,-5.05,1
7.02,-4.31,-5.17,0
7.04,-4.07,-5.29,0
7.06,-4.19,-5.29,0
7.08,-4.31,-5.05,0
7.1,-4.31,-4.8,0
7.12,-4.07,-4.92,0
7.14,-4.19,-4.8,0
7.16,-4.07,-4.8,0
7.18,-4.07,-4.8,0
7.2,-3.95,-4.68,0
7.22,-3.95,-4.68,0
7.24,-3.95,-4.68,0
7.26,-3.95,-4.8,0
7.28,-4.07,-4.8,0
7.3,-4.19,-4.8,0
7.32,-4.31,-4.68,0
7.34,-4.31,-4.68,0
7.36,-3.95,-4.68,0
7.38,-3.7,-4.68,0
7.4,-3.82,-4.56,0
7.42,-3.82,-4.56,0
7.44,-3.95,-4.56,0
7.46,-4.07,-4.56,0
7.48,-4.07,-4.68,0
7.5,-4.07,-4.68,0
7.52,-3.95,-4.68,0
7.54,-3.82,-4.68,0
7.56,-3.82,-4.68,0
7.58,-3.82,-4.68,0
7.6,-3.82,-4.56,0
7.62,-3.82,-4.56,0
7.64,-3.82,-4.56,0
7.66,-3.82,-4.56,0
7.68,-3.7,-4.56,0
7.7,-3.7,-4.44,0
7.72,-3.7,-4.56,0
7.721,-3.7,-4.56,0
7.741,-4.07,-4.8,0
7.761,-5.17,-5.78,0
7.781,-6.15,-6.63,0
7.801,-6.63,-7.25,0
7.821,-7.12,-8.35,0
7.841,-7.86,-9.08,0
7.861,-8.71,-9.45,0
7.881,-9.2,-9.69,0
7.901,-9.45,-9.81,0
7.921,-9.57,-9.81,0
7.941,-9.81,-9.93,0
7.961,-9.93,-9.93,0
7.981,-9.93,-10.06,0
8.001,-9.93,-10.06,0
8.021,-10.06,-10.06,0
8.041,-10.06,-10.06,0
8.061,-10.06,-10.18,0
8.081,-10.06,-10.18,0
8.101,-10.06,-10.18,0
8.121,-10.18,-10.18,0
8.141,-10.18,-10.18,0
8.161,-10.18,-10.18,0
8.181,-10.18,-10.18,0
8.201,-10.06,-10.18,0
8.221,-10.18,-10.18,0
8.241,-10.18,-10.18,0
8.261,-10.18,-10.18,0
8.281,-10.18,-10.18,0
8.301,-10.18,-10.3,0
8.321,-10.18,-10.3,0
8.341,-10.18,-10.3,0
8.361,-10.18,-10.3,0
8.381,-10.3,-10.3,0
8.401,-10.3,-10.3,0
8.421,-10.3,-10.3,0
8.441,-10.3,-10.3,0
8.461,-10.18,-10.3,0
8.481,-10.18,-10.3,1
8.501,-10.3,-10.3,1
8.521,-10.3,-10.3,1
8.522,-10.3,-10.3,1
8.542,-10.3,-10.3,1
8.562,-10.3,-10.3,1
8.582,-10.3,-10.3,1
8.602,-10.3,-10.3,1
8.622,-10.3,-10.3,1
8.642,-10.3,-10.3,1
8.662,-10.3,-10.42,1
8.682,-10.3,-10.3,1
8.702,-10.3,-10.3,1
8.722,-10.42,-10.42,1
8.742,-10.3,-10.3,1
8.762,-9.69,-9.69,1
8.782,-9.08,-9.08,1
8.802,-8.59,-8.22,1
8.822,-8.1,-7.49,1
8.842,-7.25,-7,1
8.862,-6.51,-6.63,1
8.882,-6.15,-6.39,1
8.902,-5.66,-6.02,1
8.922,-5.54,-5.78,1
8.922,-5.05,-5.66,1
8.942,-4.8,-5.41,1
8.962,-4.56,-5.29,1
8.982,-4.56,-5.17,1
9.002,-4.44,-5.17,1
9.022,-4.56,-5.05,1
9.042,-4.56,-5.05,1
9.062,-4.56,-5.05,1
9.082,-4.19,-5.17,0
9.102,-4.07,-5.17,0
9.122,-4.07,-5.17,0
9.142,-4.19,-4.92,0
9.162,-4.07,-4.92,0
9.182,-4.07,-4.8,0
9.202,-4.07,-4.8,0
9.222,-4.07,-4.8,0
9.242,-3.95,-4.68,0
9.262,-3.82,-4.68,0
9.282,-3.95,-4.68,0
9.302,-4.07,-4.68,0
9.322,-3.95,-4.8,0
9.323,-3.95,-4.8,0
9.343,-4.19,-4.8,0
9.363,-4.31,-4.68,0
9.383,-4.07,-4.68,0
9.403,-3.82,-4.68,0
9.423,-3.7,-4.68,0
9.443,-3.82,-4.56,0
9.463,-3.82,-4.56,0
9.483,-3.95,-4.56,0
9.503,-4.07,-4.56,0
9.523,-4.07,-4.56,0
9.543,-3.95,-4.56,0
9.563,-3.82,-4.56,0
9.583,-3.82,-4.68,0
9.603,-3.82,-4.56,0
9.623,-3.82,-4.56,0
9.643,-3.82,-4.44,0
9.663,-3.82,-4.44,0
9.683,-3.95,-4.44,0
9.703,-3.7,-4.44,0
9.723,-3.58,-4.44,0
9.743,-3.58,-4.44,0
9.763,-3.7,-4.44,0
9.783,-4.07,-4.8,0
9.803,-5.29,-5.9,0
9.823,-6.15,-6.63,0
9.843,-6.76,-7.49,0
9.863,-7.12,-8.59,0
9.883,-8.1,-9.2,0
9.903,-8.96,-9.57,0
9.923,-9.32,-9.69,0
9.943,-9.45,-9.81,0
9.963,-9.69,-9.93,0
9.983,-9.93,-9.93,0
10.003,-9.93,-10.06,0
10.023,-9.93,-10.06,0
10.043,-10.06,-10.06,0
10.063,-10.06,-10.06,0
10.083,-10.06,-10.18,0
10.103,-10.06,-10.18,0
10.123,-10.18,-10.18,0
10.124,-10.18,-10.18,0
10.144,-10.18,-10.18,0
10.164,-10.18,-10.18,0
10.184,-10.18,-10.18,0
10.204,-10.18,-10.18,0
10.224,-10.18,-10.18,0
10.244,-10.18,-10.18,0
10.264,-10.18,-10.18,0
10.284,-10.3,-10.18,0
10.304,-10.18,-10.3,0
10.324,-10.18,-10.3,0
10.344,-10.18,-10.3,0
10.364,-10.3,-10.3,0
10.384,-10.3,-10.3,0
10.404,-10.3,-10.3,0
10.424,-10.3,-10.3,0
10.444,-10.18,-10.3,0
10.464,-10.18,-10.3,0
10.484,-10.3,-10.3,1
10.504,-10.3,-10.3,1
10.524,-10.3,-10.3,1
10.544,-10.3,-10.3,1
10.564,-10.3,-10.3,1
10.585,-10.3,-10.3,1
10.604,-10.3,-10.3,1
10.624,-10.3,-10.3,1
10.644,-10.3,-10.3,1
10.664,-10.3,-10.3,1
10.684,-10.3,-10.3,1
10.704,-10.3,-10.3,1
10.724,-10.42,-10.42,1
10.744,-10.06,-10.06,1
10.764,-9.32,-9.45,1
10.784,-8.83,-8.71,1
10.804,-8.35,-7.73,1
10.824,-7.61,-7.25,1
10.844,-6.76,-6.76,1
10.864,-6.15,-6.39,1
10.884,-5.78,-6.15,1
10.904,-5.54,-5.9,1
10.924,-5.17,-5.66,1
10.925,-4.8,-5.54,1
10.945,-4.68,-5.41,1
10.965,-4.56,-5.29,1
10.985,-4.56,-5.17,1
11.005,-4.56,-5.05,1
11.025,-4.68,-5.05,1
11.045,-4.44,-5.05,1
11.065,-4.07,-5.17,0
11.085,-4.07,-5.17,0
11.105,-4.07,-5.05,0
11.125,-4.19,-4.8,0
11.145,-4.07,-4.8,0
11.165,-4.19,-4.8,0
11.185,-4.07,-4.8,0
11.205,-3.95,-4.68,0
11.225,-3.95,-4.68,0
11.245,-3.95,-4.68,0
11.265,-3.95,-4.68,0
11.285,-3.95,-4.8,0
11.305,-4.07,-4.8,0
11.326,-4.19,-4.8,0
11.346,-4.19,-4.68,0
11.366,-4.07,-4.68,0
11.386,-3.82,-4.68,0
11.406,-3.82,-4.68,0
11.426,-3.82,-4.56,0
11.446,-3.82,-4.56,0
11.466,-3.95,-4.56,0
11.486,-4.07,-4.56,0
11.506,-4.07,-4.56,0
11.526,-3.95,-4.56,0
11.546,-3.95,-4.68,0
11.566,-3.82,-4.56,0
11.586,-3.82,-4.56,0
11.606,-3.82,-4.44,0
11.626,-3.82,-4.44,0
11.646,-3.95,-4.44,0
11.666,-3.82,-4.44,0
11.686,-3.7,-4.44,0
11.706,-3.58,-4.44,0
11.726,-3.7,-4.56,0
11.746,-3.82,-4.56,0
11.766,-4.44,-5.29,0
11.786,-5.66,-6.27,0
11.807,-6.51,-7,0
11.826,-6.88,-8.1,0
11.846,-7.49,-8.96,0
11.866,-8.59,-9.45,0
11.886,-9.08,-9.69,0
11.906,-9.45,-9.81,0
11.926,-9.57,-9.93,0
11.946,-9.81,-10.06,0
11.966,-9.93,-10.06,0
11.986,-9.93,-10.06,0
12.006,-10.06,-10.06,0
12.026,-10.06,-10.18,0
12.046,-10.06,-10.18,0
12.066,-10.06,-10.18,0
12.086,-10.06,-10.18,0
12.106,-10.18,-10.18,0
12.126,-10.18,-10.18,0
12.127,-10.18,-10.18,0
12.147,-10.18,-10.18,0
12.167,-10.06,-10.18,0
12.187,-10.06,-10.18,0
12.207,-10.06,-10.18,0
12.227,-10.18,-10.18,0
12.247,-10.18,-10.18,0
12.267,-10.18,-10.3,0
12.287,-10.18,-10.3,0
12.307,-10.3,-10.3,0
12.327,-10.3,-10.3,0
12.347,-10.18,-10.3,0
12.367,-10.3,-10.3,0
12.387,-10.3,-10.3,0
12.407,-10.3,-10.3,0
12.427,-10.18,-10.3,0
12.447,-10.18,-10.3,1
12.467,-10.3,-10.3,1
12.487,-10.3,-10.3,1
12.507,-10.3,-10.3,1
12.527,-10.3,-10.3,1
12.547,-10.3,-10.3,1
12.567,-10.3,-10.3,1
12.587,-10.3,-10.3,1
12.609,-10.3,-10.3,1
12.627,-10.3,-10.3,1
12.647,-10.3,-10.3,1
12.667,-10.3,-10.3,1
12.687,-10.3,-10.42,1
12.707,-10.3,-10.3,1
12.727,-9.69,-9.81,1
12.747,-9.08,-9.2,1
12.767,-8.59,-8.35,1
12.787,-8.1,-7.49,1
12.807,-7.12,-7,1
12.827,-6.39,-6.63,1
12.847,-6.02,-6.27,1
12.867,-5.66,-6.02,1
12.887,-5.29,-5.78,1
12.908,-4.92,-5.66,1
12.927,-4.68,-5.41,1
12.928,-4.56,-5.29,1
12.948,-4.44,-5.17,1
12.968,-4.56,-5.17,1
12.988,-4.68,-5.05,1
13.008,-4.44,-5.05,1
13.028,-4.19,-5.17,0
13.048,-4.07,-5.17,0
13.068,-4.07,-5.05,0
13.088,-4.07,-4.92,0
13.108,-4.07,-4.92,0
13.128,-4.19,-4.8,0
13.148,-4.07,-4.8,0
13.168,-4.07,-4.8,0
13.188,-4.07,-4.68,0
13.208,-3.95,-4.68,0
13.228,-3.95,-4.8,0
13.248,-3.95,-4.8,0
13.268,-3.95,-4.8,0
13.288,-4.19,-4.8,0
13.308,-4.19,-4.8,0
13.328,-4.07,-4.68,0
13.348,-3.95,-4.68,0
13.368,-3.7,-4.68,0
13.388,-3.82,-4.68,0
13.409,-3.82,-4.56,0
13.428,-3.82,-4.56,0
13.448,-3.95,-4.56,0
13.468,-3.95,-4.56,0
13.488,-3.95,-4.68,0
13.508,-3.95,-4.68,0
13.528,-3.82,-4.68,0
13.548,-3.82,-4.68,0
13.568,-3.7,-4.68,0
13.588,-3.7,-4.56,0
13.608,-3.82,-4.56,0
13.628,-3.7,-4.56,0
13.648,-3.7,-4.56,0
13.668,-3.58,-4.56,0
13.688,-3.46,-4.56,0
13.708,-3.58,-4.56,0
13.728,-3.82,-4.68,0
13.729,-4.92,-5.66,0
13.749,-6.02,-6.63,0
13.769,-6.63,-7.25,0
13.789,-7,-8.47,0
13.809,-7.86,-9.2,0
13.829,-8.83,-9.57,0
13.849,-9.32,-9.81,0
13.87,-9.57,-9.93,0
13.889,-9.69,-9.93,0
13.909,-9.93,-10.06,0
13.929,-9.93,-10.06,0
13.949,-10.06,-10.06,0
13.969,-10.06,-10.06,0
13.989,-10.06,-10.18,0
14.009,-10.18,-10.18,0
14.029,-10.06,-10.18,0
14.049,-10.18,-10.18,0
14.069,-10.18,-10.18,0
14.089,-10.3,-10.18,0
14.109,-10.18,-10.18,0
14.129,-10.18,-10.18,0
14.149,-10.18,-10.18,0
14.169,-10.18,-10.18,0
14.189,-10.18,-10.18,0
14.209,-10.3,-10.18,0
14.229,-10.18,-10.18,0
14.249,-10.3,-10.3,0
14.269,-10.18,-10.3,0
14.289,-10.18,-10.3,0
14.309,-10.18,-10.3,0
14.329,-10.18,-10.3,0
14.349,-10.3,-10.3,0
14.369,-10.3,-10.3,0
14.389,-10.18,-10.3,0
14.409,-10.18,-10.3,0
14.429,-10.18,-10.3,1
14.449,-10.3,-10.3,1
14.469,-10.18,-10.3,1
14.489,-10.3,-10.42,1
14.509,-10.3,-10.3,1
14.53,-10.3,-10.3,1
14.55,-10.3,-10.3,1
14.57,-10.3,-10.3,1
14.59,-10.3,-10.42,1
14.61,-10.3,-10.3,1
14.63,-10.3,-10.3,1
14.65,-10.3,-10.3,1
14.67,-10.3,-10.42,1
14.69,-10.18,-10.18,1
14.71,-9.45,-9.57,1
14.73,-8.83,-8.83,1
14.75,-8.35,-7.98,1
14.77,-7.73,-7.25,1
14.79,-6.76,-6.88,1
14.81,-6.39,-6.51,1
14.83,-5.9,-6.15,1
14.85,-5.54,-5.9,1
14.87,-5.17,-5.66,1
14.89,-4.92,-5.54,1
14.91,-4.68,-5.41,1
14.93,-4.56,-5.29,1
14.95,-4.44,-5.17,1
14.97,-4.56,-5.05,1
14.99,-4.56,-5.05,1
15.01,-4.31,-5.05,1
15.03,-4.19,-5.17,0
15.05,-4.07,-5.17,0
15.07,-4.07,-5.05,0
15.09,-4.07,-4.92,0
15.11,-3.95,-4.92,0
15.13,-4.07,-4.8,0
15.15,-4.07,-4.8,0
15.17,-3.95,-4.8,0
15.19,-3.95,-4.68,0
15.21,-3.82,-4.68,0
15.23,-3.82,-4.68,0
15.25,-3.82,-4.8,0
15.27,-3.95,-4.8,0
15.29,-4.19,-4.8,0
15.31,-4.07,-4.68,0
15.331,-3.95,-4.68,0
15.351,-3.82,-4.68,0
15.371,-3.82,-4.68,0
15.391,-3.82,-4.68,0
15.411,-3.82,-4.68,0
15.431,-3.95,-4.68,0
15.451,-4.07,-4.68,0
15.471,-3.95,-4.68,0
15.491,-4.07,-4.68,0
15.511,-3.95,-4.8,0
15.531,-3.82,-4.68,0
15.551,-3.82,-4.68,0
15.571,-3.82,-4.68,0
15.591,-3.82,-4.56,0
15.611,-3.95,-4.56,0
15.631,-3.82,-4.56,0
15.651,-3.82,-4.56,0
15.671,-3.7,-4.56,0
15.691,-3.58,-4.56,0
15.711,-3.7,-4.56,0
15.731,-4.31,-5.17,0
15.751,-5.54,-6.15,0
15.771,-6.39,-6.88,0
15.791,-6.88,-7.86,0
15.811,-7.37,-8.83,0
15.831,-8.35,-9.45,0
15.851,-9.08,-9.69,0
15.871,-9.45,-9.81,0
15.891,-9.57,-9.93,0
15.911,-9.69,-9.93,0
15.931,-9.93,-10.06,0
15.951,-9.93,-10.06,0
15.971,-9.93,-10.06,0
15.991,-9.93,-10.06,0
16.011,-10.06,-10.06,0
16.031,-10.06,-10.18,0
16.051,-10.06,-10.18,0
16.071,-10.18,-10.18,0
16.091,-10.18,-10.18,0
16.111,-10.18,-10.18,0
16.132,-10.18,-10.18,0
16.152,-10.18,-10.18,0
16.172,-10.18,-10.18,0
16.192,-10.18,-10.18,0
16.212,-10.18,-10.18,0
16.232,-10.18,-10.18,0
16.252,-10.18,-10.3,0
16.272,-10.18,-10.18,0
16.292,-10.18,-10.3,0
16.312,-10.18,-10.3,0
16.332,-10.18,-10.3,0
16.352,-10.18,-10.3,0
16.372,-10.3,-10.3,0
16.392,-10.3,-10.3,0
16.412,-10.18,-10.3,0
16.432,-10.18,-10.3,1
16.452,-10.3,-10.3,1
16.472,-10.18,-10.3,1
16.492,-10.3,-10.3,1
16.512,-10.3,-10.3,1
16.532,-10.3,-10.3,1
16.532,-10.18,-10.3,1
16.552,-10.18,-10.3,1
16.572,-10.3,-10.3,1
16.592,-10.18,-10.3,1
16.612,-10.3,-10.3,1
16.632,-10.3,-10.3,1
16.652,-10.3,-10.3,1
16.672,-10.3,-10.3,1
16.692,-9.81,-9.93,1
16.712,-9.2,-9.32,1
16.732,-8.59,-8.59,1
16.752,-8.22,-7.73,1
16.772,-7.49,-7.12,1
16.792,-6.63,-6.63,1
16.812,-6.15,-6.39,1
16.832,-5.9,-6.15,1
16.852,-5.41,-5.9,1
16.872,-5.17,-5.66,1
16.892,-4.92,-5.54,1
16.912,-4.68,-5.41,1
16.932,-4.56,-5.29,1
16.933,-4.56,-5.17,1
16.953,-4.56,-5.17,1
16.973,-4.68,-5.17,1
16.993,-4.44,-5.05,0
17.013,-4.31,-5.17,0
17.033,-4.19,-5.17,0
17.053,-4.19,-5.05,0
17.073,-4.19,-4.92,0
17.093,-4.07,-4.92,0
17.113,-4.19,-4.92,0
17.133,-4.07,-4.8,0
17.153,-4.07,-4.8,0
17.173,-4.07,-4.8,0
17.193,-4.07,-4.8,0
17.213,-3.95,-4.8,0
17.233,-3.95,-4.8,0
17.253,-4.07,-4.92,0
17.273,-4.19,-4.8,0
17.293,-4.07,-4.68,0
17.313,-3.95,-4.8,0
17.333,-3.95,-4.68,0
17.353,-3.82,-4.68,0
17.373,-3.7,-4.68,0
17.393,-3.82,-4.68,0
17.413,-3.82,-4.68,0
17.433,-4.07,-4.68,0
17.453,-3.95,-4.68,0
17.473,-3.95,-4.68,0
17.493,-3.95,-4.8,0
17.513,-3.82,-4.8,0
17.533,-3.7,-4.68,0
17.553,-3.82,-4.68,0
17.573,-3.82,-4.56,0
17.593,-3.95,-4.56,0
17.613,-3.82,-4.56,0
17.633,-3.82,-4.56,0
17.653,-3.82,-4.56,0
17.673,-3.82,-4.56,0
17.693,-3.95,-4.56,0
17.713,-4.68,-5.41,0
17.733,-5.9,-6.39,0
17.734,-6.63,-7,0
17.754,-7,-8.1,0
17.774,-7.61,-8.96,0
17.794,-8.59,-9.45,0
17.814,-9.2,-9.69,0
17.834,-9.57,-9.81,0
17.854,-9.69,-9.81,0
17.874,-9.81,-9.93,0
17.894,-9.93,-9.93,0
17.914,-9.93,-9.93,0
17.934,-9.93,-10.06,0
17.954,-10.06,-10.06,0
17.974,-10.06,-10.06,0
17.994,-10.06,-10.18,0
18.014,-10.06,-10.18,0
18.034,-10.18,-10.18,0
18.054,-10.06,-10.18,0
18.074,-10.18,-10.18,0
18.094,-10.06,-10.18,0
18.114,-10.18,-10.18,0
18.134,-10.06,-10.18,0
18.154,-10.06,-10.18,0
18.174,-10.18,-10.18,0
18.194,-10.18,-10.18,0
18.214,-10.18,-10.3,0
18.234,-10.18,-10.3,0
18.254,-10.18,-10.3,0
18.274,-10.18,-10.3,0
18.294,-10.18,-10.3,0
18.314,-10.3,-10.3,0
18.334,-10.3,-10.3,0
18.354,-10.18,-10.3,0
18.374,-10.18,-10.3,0
18.394,-10.18,-10.3,1
18.414,-10.3,-10.3,1
18.434,-10.3,-10.3,1
18.454,-10.3,-10.3,1
18.474,-10.3,-10.3,1
18.494,-10.3,-10.3,1
18.514,-10.3,-10.3,1
18.535,-10.3,-10.3,1
18.555,-10.3,-10.3,1
18.575,-10.3,-10.3,1
18.595,-10.3,-10.3,1
18.615,-10.3,-10.3,1
18.635,-10.3,-10.3,1
18.655,-10.3,-10.3,1
18.675,-9.69,-9.81,1
18.695,-9.08,-9.2,1
18.715,-8.59,-8.47,1
18.735,-8.1,-7.49,1
18.755,-7.25,-7,1
18.775,-6.51,-6.63,1
18.795,-6.02,-6.39,1
18.815,-5.66,-6.02,1
18.835,-5.29,-5.78,1
18.855,-5.05,-5.54,1
18.875,-4.92,-5.41,1
18.895,-4.68,-5.29,1
18.915,-4.56,-5.29,1
18.935,-4.56,-5.17,1
18.935,-4.56,-5.17,1
18.955,-4.56,-5.05,1
18.975,-4.19,-5.05,0
18.995,-4.19,-5.17,0
19.015,-4.19,-5.05,0
19.035,-4.19,-5.05,0
19.055,-4.19,-4.92,0
19.075,-4.19,-4.92,0
19.095,-4.19,-4.8,0
19.115,-4.07,-4.8,0
19.135,-4.07,-4.8,0
19.156,-4.07,-4.8,0
19.175,-4.07,-4.8,0
19.195,-4.07,-4.8,0
19.215,-4.07,-4.8,0
19.235,-4.19,-4.8,0
19.255,-4.19,-4.8,0
19.275,-4.07,-4.8,0
19.295,-4.07,-4.8,0
19.315,-3.95,-4.68,0
19.335,-3.82,-4.68,0
19.336,-3.82,-4.68,0
19.356,-3.95,-4.68,0
19.376,-3.95,-4.68,0
19.396,-4.07,-4.68,0
19.416,-3.95,-4.68,0
19.436,-4.07,-4.68,0
19.456,-3.95,-4.68,0
19.476,-3.82,-4.68,0
19.496,-3.7,-4.68,0
19.516,-3.7,-4.56,0
19.536,-3.7,-4.56,0
19.556,-3.82,-4.56,0
19.576,-3.7,-4.44,0
19.596,-3.7,-4.44,0
19.616,-3.7,-4.44,0
19.636,-3.7,-4.56,0
19.656,-3.82,-4.56,0
19.676,-4.92,-5.54,0
19.696,-6.02,-6.51,0
19.716,-6.63,-7.12,0
19.736,-7,-8.35,0
19.756,-7.73,-9.2,0
19.776,-8.71,-9.57,0
19.796,-9.32,-9.69,0
19.816,-9.57,-9.81,0
19.836,-9.69,-9.93,0
19.856,-9.81,-9.93,0
19.876,-9.93,-10.06,0
19.896,-10.06,-10.06,0
19.916,-10.06,-10.06,0
19.936,-10.06,-10.18,0
19.956,-10.06,-10.18,0
19.976,-10.06,-10.18,0
19.996,-10.18,-10.18,0
20.016,-10.3,-10.18,0
20.036,-10.18,-10.18,0
20.056,-10.18,-10.18,0
20.076,-10.18,-10.18,0
20.096,-10.18,-10.18,0
20.117,-10.18,-10.18,0
20.136,-10.18,-10.18,0
20.137,-10.18,-10.18,0
20.157,-10.18,-10.18,0
20.177,-10.18,-10.3,0
20.197,-10.18,-10.3,0
20.217,-10.18,-10.3,0
20.237,-10.18,-10.3,0
20.257,-10.18,-10.3,0
20.277,-10.18,-10.3,0
20.297,-10.18,-10.3,0
20.317,-10.18,-10.3,0
20.337,-10.18,-10.3,0
20.357,-10.18,-10.3,1
20.377,-10.18,-10.3,1
20.397,-10.18,-10.3,1
20.417,-10.3,-10.3,1
20.437,-10.18,-10.3,1
20.457,-10.3,-10.3,1
20.477,-10.3,-10.3,1
20.497,-10.3,-10.3,1
20.517,-10.3,-10.3,1
20.538,-10.3,-10.3,1
20.558,-10.3,-10.3,1
20.578,-10.3,-10.3,1
20.598,-10.3,-10.3,1
20.618,-10.06,-10.18,1
20.638,-9.45,-9.57,1
20.658,-8.96,-8.96,1
20.678,-8.47,-8.1,1
20.698,-7.86,-7.25,1
20.718,-6.88,-6.88,1
20.738,-6.27,-6.51,1
20.758,-5.9,-6.27,1
20.778,-5.54,-6.02,1
20.798,-5.17,-5.78,1
20.818,-5.05,-5.54,1
20.838,-4.8,-5.41,1
20.858,-4.68,-5.29,1
20.878,-4.56,-5.29,1
20.898,-4.56,-5.17,1
20.918,-4.56,-5.05,1
20.938,-4.31,-5.17,1
20.938,-4.19,-5.17,0
20.958,-4.19,-5.17,0
20.978,-4.19,-5.05,0
20.998,-4.07,-4.92,0
21.018,-4.07,-4.92,0
21.038,-4.07,-4.92,0
21.058,-4.07,-4.8,0
21.078,-3.95,-4.8,0
21.098,-3.95,-4.8,0
21.118,-4.07,-4.8,0
21.138,-3.95,-4.68,0
21.158,-3.95,-4.8,0
21.178,-4.07,-4.8,0
21.198,-4.19,-4.8,0
21.218,-4.07,-4.8,0
21.238,-4.07,-4.8,0
21.258,-3.95,-4.68,0
21.278,-3.95,-4.68,0
21.298,-3.95,-4.68,0
21.318,-3.82,-4.68,0
21.339,-3.95,-4.68,0
21.359,-4.07,-4.68,0
21.379,-4.19,-4.68,0
21.399,-4.07,-4.68,0
21.419,-4.07,-4.68,0
21.439,-4.07,-4.68,0
21.459,-3.95,-4.68,0
21.479,-3.82,-4.68,0
21.499,-3.95,-4.56,0
21.519,-3.95,-4.56,0
21.539,-3.82,-4.56,0
21.559,-3.82,-4.56,0
21.579,-3.7,-4.56,0
21.599,-3.7,-4.56,0
21.619,-3.82,-4.56,0
21.639,-4.19,-5.05,0
21.659,-5.41,-6.15,0
21.679,-6.27,-6.88,0
21.699,-6.76,-7.73,0
21.719,-7.12,-8.83,0
21.739,-8.1,-9.32,0
21.739,-8.96,-9.69,0
21.759,-9.45,-9.81,0
21.779,-9.57,-9.93,0
21.799,-9.69,-9.93,0
21.819,-9.81,-10.06,0
21.839,-9.81,-10.06,0
21.859,-9.93,-10.06,0
21.879,-9.93,-10.06,0
21.899,-10.06,-10.06,0
21.919,-10.06,-10.18,0
21.939,-10.06,-10.18,0
21.959,-10.18,-10.18,0
21.979,-10.18,-10.18,0
21.999,-10.18,-10.18,0
22.019,-10.18,-10.18,0
22.039,-10.18,-10.18,0
22.059,-10.18,-10.18,0
22.079,-10.18,-10.18,0
22.099,-10.18,-10.18,0
22.119,-10.3,-10.3,0
22.139,-10.18,-10.18,0
22.14,-10.18,-10.18,0
22.16,-10.18,-10.3,0
22.18,-10.18,-10.18,0
22.2,-10.18,-10.18,0
22.22,-10.18,-10.3,0
22.24,-10.3,-10.3,0
22.26,-10.18,-10.18,0
22.28,-10.18,-10.3,0
22.3,-10.18,-10.18,0
22.32,-10.3,-10.3,1
22.34,-10.18,-10.3,1
22.36,-10.18,-10.3,1
22.38,-10.3,-10.3,1
22.4,-10.18,-10.3,1
22.42,-10.18,-10.3,1
22.44,-10.18,-10.3,1
22.46,-10.3,-10.3,1
22.48,-10.3,-10.3,1
22.5,-10.3,-10.3,1
22.52,-10.3,-10.3,1
22.54,-10.3,-10.3,1
22.56,-10.3,-10.3,1
22.58,-9.93,-9.93,1
22.6,-9.32,-9.45,1
22.62,-8.71,-8.83,1
22.64,-8.35,-7.86,1
22.66,-7.61,-7.25,1
22.68,-6.76,-6.76,1
22.7,-6.27,-6.39,1
22.72,-5.78,-6.15,1
22.74,-5.41,-5.9,1
22.76,-5.17,-5.66,1
22.78,-4.92,-5.54,1
22.8,-4.68,-5.41,1
22.82,-4.68,-5.29,1
22.84,-4.56,-5.17,1
22.86,-4.68,-5.17,1
22.88,-4.68,-5.17,1
22.9,-4.44,-5.17,1
22.92,-4.31,-5.17,0
22.94,-4.19,-5.17,0
22.941,-4.19,-5.05,0
22.961,-4.07,-4.92,0
22.981,-4.19,-4.92,0
23.001,-4.07,-4.8,0
23.021,-4.07,-4.8,0
23.041,-3.95,-4.8,0
23.061,-4.07,-4.8,0
23.081,-4.07,-4.8,0
23.101,-3.95,-4.8,0
23.121,-3.95,-4.8,0
23.141,-4.07,-4.8,0
23.161,-4.07,-4.8,0
23.181,-4.07,-4.8,0
23.201,-3.95,-4.68,0
23.221,-3.95,-4.68,0
23.241,-3.95,-4.68,0
23.261,-3.82,-4.68,0
23.281,-3.82,-4.68,0
23.301,-3.95,-4.68,0
23.321,-3.95,-4.68,0
23.341,-3.95,-4.68,0
23.361,-3.95,-4.68,0
23.381,-4.07,-4.8,0
23.401,-3.95,-4.8,0
23.421,-3.82,-4.68,0
23.441,-3.82,-4.68,0
23.461,-3.95,-4.68,0
23.481,-3.95,-4.68,0
23.501,-3.95,-4.56,0
23.521,-3.82,-4.56,0
23.541,-3.82,-4.68,0
23.561,-3.82,-4.56,0
23.581,-3.82,-4.68,0
23.601,-4.56,-5.29,0
23.621,-5.78,-6.39,0
23.641,-6.51,-7,0
23.661,-7,-8.1,0
23.681,-7.49,-8.96,0
23.701,-8.47,-9.45,0
23.721,-9.2,-9.69,0
23.741,-9.45,-9.81,0
23.742,-9.57,-9.93,0
23.762,-9.69,-9.93,0
23.782,-9.93,-10.06,0
23.802,-9.93,-10.06,0
23.822,-9.93,-10.06,0
23.843,-9.93,-10.06,0
23.862,-10.06,-10.06,0
23.882,-10.06,-10.18,0
23.902,-10.06,-10.18,0
23.922,-10.18,-10.18,0
23.942,-10.18,-10.18,0
23.962,-10.06,-10.18,0
23.982,-10.18,-10.18,0
24.002,-10.18,-10.18,0
24.022,-10.18,-10.18,0
24.042,-10.18,-10.18,0
24.062,-10.18,-10.18,0
24.082,-10.18,-10.18,0
24.102,-10.18,-10.18,0
24.122,-10.18,-10.18,0
24.143,-10.18,-10.3,0
24.163,-10.18,-10.3,0
24.183,-10.18,-10.3,0
24.203,-10.3,-10.18,0
24.223,-10.3,-10.3,0
24.243,-10.3,-10.3,0
24.263,-10.3,-10.3,0
24.283,-10.3,-10.3,1
24.303,-10.18,-10.3,1
24.323,-10.3,-10.3,1
24.343,-10.3,-10.3,1
24.363,-10.3,-10.3,1
24.383,-10.18,-10.3,1
24.403,-10.18,-10.3,1
24.423,-10.3,-10.3,1
24.443,-10.3,-10.3,1
24.463,-10.3,-10.3,1
24.483,-10.3,-10.3,1
24.503,-10.3,-10.3,1
24.523,-10.3,-10.3,1
24.544,-10.3,-10.3,1
24.565,-9.69,-9.81,1
24.584,-9.2,-9.32,1
24.604,-8.59,-8.59,1
24.624,-8.1,-7.61,1
24.644,-7.37,-7,1
24.664,-6.63,-6.63,1
24.684,-6.02,-6.27,1
24.704,-5.66,-6.02,1
24.724,-5.29,-5.78,1
24.744,-5.05,-5.54,1
24.764,-4.92,-5.41,1
24.784,-4.68,-5.29,1
24.804,-4.56,-5.29,1
24.824,-4.56,-5.17,1
24.844,-4.68,-5.17,1
24.865,-4.56,-5.05,1
24.884,-4.31,-5.05,0
24.904,-4.31,-5.05,0
24.924,-4.31,-5.05,0
24.944,-4.19,-5.05,0
24.964,-4.07,-4.92,0
24.984,-4.19,-4.92,0
25.004,-4.19,-4.92,0
25.024,-4.07,-4.8,0
25.044,-4.07,-4.8,0
25.065,-4.07,-4.8,0
25.084,-4.07,-4.8,0
25.104,-3.95,-4.8,0
25.124,-3.95,-4.8,0
25.144,-4.19,-4.8,0
25.164,-4.19,-4.8,0
25.184,-4.07,-4.8,0
25.204,-3.95,-4.68,0
25.224,-3.95,-4.8,0
25.244,-3.95,-4.68,0
25.264,-3.82,-4.68,0
25.284,-3.82,-4.68,0
25.304,-3.95,-4.68,0
25.324,-3.95,-4.68,0
25.345,-3.95,-4.68,0
25.365,-3.95,-4.68,0
25.385,-3.95,-4.8,0
25.405,-3.82,-4.8,0
25.425,-3.7,-4.68,0
25.445,-3.7,-4.68,0
25.465,-3.82,-4.56,0
25.485,-3.7,-4.56,0
25.505,-3.7,-4.56,0
25.525,-3.7,-4.56,0
25.545,-3.7,-4.56,0
25.565,-3.82,-4.56,0
25.585,-3.82,-4.68,0
25.605,-4.8,-5.54,0
25.625,-5.9,-6.39,0
25.645,-6.63,-7.12,0
25.665,-7.12,-8.35,0
25.685,-7.73,-9.08,0
25.705,-8.71,-9.45,0
25.725,-9.32,-9.69,0
25.745,-9.57,-9.81,0
25.765,-9.69,-9.81,0
25.785,-9.81,-9.93,0
25.805,-9.93,-9.93,0
25.825,-9.93,-10.06,0
25.845,-10.06,-10.06,0
25.865,-10.06,-10.06,0
25.885,-10.06,-10.06,0
25.905,-10.06,-10.18,0
25.925,-10.06,-10.18,0
25.945,-10.18,-10.18,0
25.965,-10.06,-10.18,0
25.985,-10.06,-10.18,0
26.005,-10.18,-10.18,0
26.025,-10.3,-10.18,0
26.045,-10.06,-10.18,0
26.065,-10.06,-10.18,0
26.085,-10.18,-10.18,0
26.105,-10.18,-10.18,0
26.125,-10.18,-10.18,0
26.145,-10.06,-10.18,0
26.145,-10.18,-10.3,0
26.165,-10.06,-10.3,0
26.185,-10.06,-10.18,0
26.205,-10.18,-10.18,0
26.225,-10.18,-10.3,0
26.245,-10.06,-10.3,0
26.265,-10.18,-10.18,0
26.285,-10.3,-10.18,1
26.305,-10.18,-10.18,1
26.325,-10.18,-10.3,1
26.345,-10.18,-10.3,1
26.365,-10.18,-10.3,1
26.385,-10.18,-10.3,1
26.405,-10.18,-10.3,1
26.425,-10.3,-10.3,1
26.445,-10.18,-10.3,1
26.465,-10.18,-10.18,1
26.485,-10.3,-10.3,1
26.505,-10.3,-10.3,1
26.525,-10.3,-10.3,1
26.545,-10.18,-10.18,1
26.546,-9.45,-9.57,1
26.566,-8.83,-8.96,1
26.586,-8.47,-8.22,1
26.606,-7.98,-7.37,1
26.626,-7,-6.88,1
26.646,-6.39,-6.51,1
26.666,-5.9,-6.27,1
26.686,-5.54,-6.02,1
26.706,-5.29,-5.78,1
26.728,-5.05,-5.54,1
26.747,-4.8,-5.54,1
26.766,-4.68,-5.41,1
26.786,-4.56,-5.29,1
26.806,-4.56,-5.29,1
26.826,-4.68,-5.17,1
26.846,-4.56,-5.17,1
26.866,-4.31,-5.17,0
26.886,-4.31,-5.17,0
26.906,-4.31,-5.17,0
26.926,-4.19,-5.05,0
26.946,-4.19,-5.05,0
26.947,-4.31,-4.92,0
26.967,-4.19,-5.05,0
26.987,-4.19,-4.92,0
27.007,-4.19,-4.92,0
27.027,-4.19,-4.92,0
27.047,-4.31,-4.92,0
27.067,-4.19,-4.8,0
27.087,-4.19,-4.92,0
27.107,-4.44,-4.92,0
27.127,-4.31,-4.92,0
27.147,-4.19,-4.8,0
27.167,-4.19,-4.8,0
27.187,-4.19,-4.8,0
27.207,-4.19,-4.8,0
27.227,-4.07,-4.8,0
27.247,-4.07,-4.8,0
27.267,-4.19,-4.8,0
27.287,-4.19,-4.8,0
27.307,-4.19,-4.8,0
27.327,-4.19,-4.8,0
27.347,-4.19,-4.8,0
27.348,-4.07,-4.8,0
27.368,-3.95,-4.68,0
27.388,-3.95,-4.68,0
27.408,-4.07,-4.68,0
27.428,-3.95,-4.68,0
27.448,-3.95,-4.68,0
27.468,-3.82,-4.68,0
27.488,-3.95,-4.68,0
27.508,-3.95,-4.68,0
27.528,-4.07,-4.92,0
27.548,-5.29,-6.02,0
27.568,-6.15,-6.76,0
27.588,-6.76,-7.49,0
27.608,-7.12,-8.71,0
27.628,-7.86,-9.32,0
27.648,-8.83,-9.57,0
27.668,-9.45,-9.81,0
27.688,-9.57,-9.81,0
27.708,-9.69,-9.93,0
27.728,-9.81,-9.93,0
27.748,-9.81,-10.06,0
27.748,-9.93,-10.06,0
27.768,-10.06,-10.06,0
27.788,-10.06,-10.06,0
27.808,-10.06,-10.18,0
27.828,-10.06,-10.18,0
27.848,-10.06,-10.18,0
27.868,-10.06,-10.18,0
27.888,-10.06,-10.18,0
27.908,-10.18,-10.18,0
27.928,-10.18,-10.18,0
27.948,-10.18,-10.06,0
27.968,-10.06,-10.06,0
27.988,-10.06,-10.18,0
28.008,-10.06,-10.18,0
28.028,-10.06,-10.18,0
28.048,-10.06,-10.18,0
28.068,-10.18,-10.18,0
28.088,-10.18,-10.18,0
28.108,-10.06,-10.18,0
28.128,-10.18,-10.18,0
28.149,-10.18,-10.18,0
28.169,-10.06,-10.18,0
28.189,-10.06,-10.18,0
28.209,-10.18,-10.18,0
28.229,-10.18,-10.18,1
28.249,-10.06,-10.18,1
28.269,-10.06,-10.3,1
28.289,-10.18,-10.18,1
28.309,-10.06,-10.3,1
28.329,-10.18,-10.18,1
28.349,-10.18,-10.18,1
28.369,-10.18,-10.18,1
28.389,-10.18,-10.3,1
28.409,-10.18,-10.3,1
28.429,-10.18,-10.3,1
28.449,-10.18,-10.3,1
28.469,-10.18,-10.3,1
28.489,-9.93,-10.06,1
28.509,-9.32,-9.45,1
28.529,-8.71,-8.83,1
28.549,-8.35,-7.86,1
28.569,-7.73,-7.25,1
28.589,-6.76,-6.76,1
28.609,-6.27,-6.39,1
28.629,-5.78,-6.27,1
28.649,-5.41,-5.9,1
28.669,-5.17,-5.78,1
28.689,-4.92,-5.54,1
28.709,-4.8,-5.41,1
28.729,-4.68,-5.29,1
28.749,-4.56,-5.29,1
28.769,-4.68,-5.17,1
28.789,-4.68,-5.17,1
28.809,-4.56,-5.17,1
28.829,-4.31,-5.17,0
28.849,-4.44,-5.17,0
28.869,-4.31,-5.17,0
28.889,-4.19,-5.05,0
28.913,-4.19,-5.05,0
28.934,-4.31,-4.92,0
28.954,,,
28.974,-4.31,-4.92,0
28.994,-4.07,-4.92,0
29.014,-4.07,-4.92,0
29.034,-4.19,-4.92,0
29.054,-4.19,-4.92,0
29.074,-4.07,-4.92,0
29.094,-4.07,-4.92,0
29.114,-4.31,-4.92,0
29.134,-4.19,-4.8,0
29.154,,,
29.174,-4.07,-4.8,0
29.194,-4.07,-4.8,0
29.214,-4.07,-4.8,0
29.234,-4.07,-4.8,0
29.254,-3.95,-4.8,0
29.274,-4.07,-4.8,0
29.294,-4.19,-4.8,0
29.314,-4.19,-4.8,0
29.334,-4.19,-4.8,0
29.354,-4.19,-4.92,0
29.372,-4.19,-4.92,0
29.392,-4.07,-4.8,0
29.413,,,
29.432,-3.95,-4.8,0
29.452,-4.19,-4.8,0
29.472,-4.07,-4.68,0
29.492,-3.95,-4.68,0
29.512,-3.95,-4.68,0
29.532,-3.95,-4.68,0
29.552,-3.95,-4.68,0
29.572,-3.95,-4.8,0
29.592,-4.44,-5.29,0
29.612,,,
29.632,-5.66,-6.27,0
29.652,-6.51,-7,0
29.672,-6.88,-7.98,0
29.692,-7.37,-8.96,0
29.712,-8.22,-9.45,0
29.732,-9.08,-9.69,0
29.752,-9.45,-9.81,0
29.772,-9.57,-9.81,0
29.786,-9.69,-9.93,0
29.81,-9.81,-9.93,0
29.831,-9.81,-9.93,0
29.851,-9.81,-9.93,0
29.876,-9.93,-10.06,0
29.896,-9.93,-10.06,0
29.921,-9.93,-10.06,0
29.942,,,
29.946,-9.93,-10.18,0
29.966,-10.06,-10.06,0
29.991,-10.06,-10.18,0
30.015,-10.06,-10.18,0
30.036,,,
30.046,-10.18,-10.18,0
30.066,-10.18,-10.06,0
30.086,-10.18,-10.06,0
30.109,-10.06,-10.18,0
30.134,-10.18,-10.18,0
30.158,-10.18,-10.18,0
30.183,-10.18,-10.18,0
30.204,,,
30.224,-10.18,-10.18,0
30.244,-10.18,-10.18,0
30.264,-10.18,-10.18,0
30.284,-10.18,-10.18,0
30.304,-10.18,-10.18,0
30.326,-10.18,-10.18,0
30.347,,,
30.364,-10.18,-10.18,0
30.384,-10.18,-10.18,0
30.404,-10.18,-10.18,0
30.424,-10.18,-10.18,1
30.445,-10.18,-10.18,1
30.47,-10.18,-10.3,1
30.494,-10.18,-10.3,1
30.515,,,
30.524,-10.18,-10.3,1
30.544,-10.18,-10.3,1
30.564,-10.18,-10.3,1
30.589,-10.18,-10.3,1
30.613,-10.18,-10.3,1
30.637,-10.18,-10.3,1
30.662,-10.18,-10.3,1
30.685,,,
30.693,-10.18,-10.3,1
30.713,-10.18,-10.3,1
30.733,-9.93,-10.06,1
30.756,-9.32,-9.45,1
30.777,-8.71,-8.83,1
30.797,,,
30.813,-8.22,-7.98,1
30.833,-7.73,-7.12,1
30.853,-6.76,-6.76,1
30.873,-6.27,-6.39,1
30.893,-5.9,-6.15,1
30.913,-5.41,-5.9,1
30.933,-5.17,-5.66,1
30.953,-5.05,-5.54,1
30.973,-4.8,-5.41,1
30.994,,,
31.013,-4.68,-5.29,1
31.019,-4.68,-5.29,1
31.039,-4.8,-5.29,1
31.06,,,
31.079,-4.68,-5.17,1
31.099,-4.44,-5.17,1
31.119,-4.31,-5.17,0
31.139,-4.31,-5.17,0
31.159,-4.31,-5.05,0
31.179,-4.19,-5.05,0
31.199,-4.19,-5.05,0
31.219,-4.31,-4.92,0
31.239,-4.19,-4.92,0
31.259,,,
31.279,-4.19,-4.92,0
31.299,-4.19,-4.92,0
31.319,-4.19,-4.92,0
31.339,-4.19,-4.92,0
31.359,-4.07,-4.92,0
31.379,-4.19,-4.92,0
31.399,-4.31,-4.92,0
31.419,-4.19,-4.92,0
31.432,-4.07,-4.92,0
31.457,-4.07,-4.8,0
31.477,-4.07,-4.8,0
31.498,-3.95,-4.8,0
31.522,-3.95,-4.8,0
31.543,-3.95,-4.8,0
31.563,-4.07,-4.8,0
31.588,-3.95,-4.8,0
31.608,-4.07,-4.92,0
31.629,,,
31.632,,,
31.652,-4.07,-4.92,0
31.672,-4.07,-4.92,0
31.692,-3.95,-4.8,0
31.712,-3.95,-4.8,0
31.732,-3.95,-4.68,0
31.752,-4.07,-4.68,0
31.773,-3.82,-4.68,0
31.792,-3.95,-4.68,0
31.812,-3.95,-4.68,0
31.833,-4.07,-4.68,0
31.853,-3.95,-4.68,0
31.873,-4.56,-5.29,0
31.893,,,
31.913,-5.78,-6.27,0
31.933,-6.51,-6.88,0
31.953,-7,-7.86,0
31.973,-7.37,-8.83,0
31.993,-8.35,-9.32,0
32.013,-9.2,-9.57,0
32.033,-9.45,-9.81,0
32.053,-9.57,-9.81,0
32.073,-9.69,-9.93,0
32.093,-9.81,-9.93,0
32.113,-9.81,-9.93,0
32.133,-9.93,-9.93,0
32.153,,,
32.173,-10.06,-10.06,0
32.193,-10.06,-10.06,0
32.213,-9.93,-10.06,0
32.233,-9.93,-10.18,0
32.248,,,
32.268,-10.06,-10.18,0
32.288,-10.06,-10.18,0
32.308,-10.06,-10.18,0
32.328,-10.06,-10.18,0
32.348,-10.06,-10.18,0
32.37,-10.06,-10.18,0
32.391,,,
32.408,-10.06,-10.18,0
32.428,-10.06,-10.18,0
32.448,-10.06,-10.18,0
32.468,-10.06,-10.18,0
32.489,-10.06,-10.18,0
32.513,-10.18,-10.18,0
32.534,,,
32.548,-10.18,-10.18,0
32.568,-10.18,-10.18,0
32.588,-10.18,-10.18,0
32.608,-10.18,-10.18,0
32.632,-10.18,-10.18,0
32.657,-10.18,-10.18,0
32.681,-10.18,-10.18,0
32.702,,,
32.717,-10.18,-10.18,1
32.737,-10.18,-10.18,1
32.757,-10.18,-10.3,1
32.777,-10.18,-10.3,1
32.8,-10.18,-10.3,1
32.825,-10.18,-10.3,1
32.849,-10.18,-10.3,1
32.87,,,
32.877,-10.3,-10.18,1
32.897,-10.18,-10.3,1
32.919,-10.18,-10.3,1
32.943,-10.3,-10.3,1
32.968,-10.18,-10.3,1
32.993,-10.3,-10.3,1
33.013,,,
33.017,-9.93,-9.93,1
33.038,-9.2,-9.32,1
33.059,-8.71,-8.71,1
33.079,,,
33.099,-8.22,-7.86,1
33.119,-7.61,-7.12,1
33.139,-6.76,-6.63,1
33.159,-6.27,-6.39,1
33.179,-5.78,-6.15,1
33.2,-5.41,-5.9,1
33.219,-5.17,-5.66,1
33.239,-4.92,-5.54,1
33.259,-4.8,-5.41,1
33.279,-4.68,-5.41,1
33.3,-4.56,-5.29,1
33.32,-4.68,-5.17,1
33.345,-4.68,-5.17,1
33.365,-4.44,-5.17,1
33.386,-4.31,-5.17,0
33.41,-4.44,-5.17,0
33.431,-4.44,-5.17,0
33.452,-4.31,-5.05,0
33.476,-4.19,-5.05,0
33.497,-4.31,-5.05,0
33.517,,,
33.536,-4.19,-4.92,0
33.556,-4.19,-4.92,0
33.576,-4.19,-4.92,0
33.596,-4.31,-4.92,0
33.616,-4.31,-4.92,0
33.636,-4.19,-4.92,0
33.656,-4.19,-4.92,0
33.676,-4.31,-4.92,0
33.696,-4.19,-4.92,0
33.716,,,
33.736,-4.07,-4.92,0
33.756,-4.07,-4.8,0
33.776,-4.07,-4.8,0
33.796,-4.07,-4.8,0
33.816,-3.95,-4.68,0
33.836,-4.07,-4.8,0
33.856,-4.07,-4.68,0
33.877,-4.07,-4.8,0
33.897,-4.07,-4.8,0
33.917,-4.07,-4.8,0
33.937,-4.07,-4.8,0
33.957,-4.07,-4.8,0
33.977,,,
33.997,-3.82,-4.68,0
34.017,-3.95,-4.68,0
34.037,-3.95,-4.68,0
34.057,-3.82,-4.68,0
34.077,-3.82,-4.68,0
34.097,-3.82,-4.68,0
34.117,-3.82,-4.68,0
34.137,-3.95,-4.68,0
34.157,-4.56,-5.41,0
34.177,-5.78,-6.39,0
34.197,-6.51,-7,0
34.217,-6.88,-8.1,0
34.238,,,
34.257,-7.37,-9.08,0
34.277,-8.47,-9.45,0
34.283,-9.2,-9.69,0
34.303,,,
34.325,-9.57,-9.81,0
34.343,-9.69,-9.93,0
34.363,-9.69,-9.93,0
34.383,-9.93,-10.06,0
34.403,-9.93,-10.06,0
34.423,-9.93,-10.06,0
34.443,-10.06,-10.06,0
34.463,-10.06,-10.06,0
34.488,-10.06,-10.18,0
34.512,-10.06,-10.18,0
34.537,-10.18,-10.18,0
34.561,-10.18,-10.18,0
34.582,,,
34.583,,,
34.603,-10.18,-10.18,0
34.623,-10.18,-10.18,0
34.643,-10.18,-10.18,0
34.663,-10.06,-10.18,0
34.684,-10.06,-10.18,0
34.704,-10.06,-10.18,0
34.725,,,
34.744,-10.18,-10.18,0
34.764,-10.06,-10.18,0
34.784,-10.18,-10.18,0
34.804,-10.06,-10.18,0
34.824,-10.06,-10.18,0
34.848,-10.06,-10.18,0
34.872,-10.18,-10.18,0
34.893,,,
34.904,-10.18,-10.18,0
34.924,-10.18,-10.18,0
34.944,-10.18,-10.18,0
34.966,-10.18,-10.18,1
34.991,-10.18,-10.18,1
35.016,-10.18,-10.18,1
35.04,-10.18,-10.18,1
35.061,,,
35.064,,,
35.084,-10.18,-10.18,1
35.086,-10.18,-10.18,1
35.11,-10.18,-10.3,1
35.135,-10.3,-10.3,1
35.159,-10.3,-10.3,1
35.183,-10.3,-10.3,1
35.204,,,
35.206,,,
35.226,-10.3,-10.3,1
35.246,-10.3,-10.3,1
35.266,-10.3,-10.3,1
35.286,-10.18,-10.3,1
35.306,-9.69,-9.81,1
35.326,-9.08,-9.2,1
35.347,-8.59,-8.59,1
35.368,-8.22,-7.61,1
35.389,-7.37,-7,1
35.413,-6.63,-6.63,1
35.434,-6.15,-6.39,1
35.454,-5.66,-6.15,1
35.479,-5.29,-5.78,1
35.499,-5.05,-5.66,1
35.52,,,
35.539,-4.92,-5.54,1
35.559,-4.8,-5.41,1
35.579,-4.68,-5.29,1
35.599,-4.56,-5.29,1
35.621,-4.68,-5.29,1
35.639,-4.56,-5.17,1
35.659,-4.31,-5.17,0
35.679,-4.31,-5.17,0
35.699,-4.31,-5.17,0
35.719,,,
35.739,-4.31,-5.05,0
35.759,-4.19,-5.05,0
35.78,-4.19,-4.92,0
35.799,-4.19,-4.92,0
35.819,-4.07,-4.92,0
35.839,-4.07,-4.92,0
35.859,-4.07,-4.92,0
35.879,-4.19,-4.8,0
35.899,-4.19,-4.8,0
35.913,,,
35.933,-4.19,-4.92,0
35.953,-4.19,-4.92,0
35.973,-4.31,-4.92,0
35.993,-4.07,-4.92,0
36.013,-4.19,-4.8,0
36.033,-4.07,-4.8,0
36.054,-4.19,-4.8,0
36.073,-4.07,-4.8,0
36.093,-4.07,-4.8,0
36.113,-4.19,-4.8,0
36.134,-4.19,-4.8,0
36.154,-4.07,-4.8,0
36.175,,,
36.193,-4.19,-4.92,0
36.213,-4.07,-4.92,0
36.233,-4.19,-4.92,0
36.253,-4.07,-4.8,0
36.273,-3.95,-4.8,0
36.293,-4.07,-4.8,0
36.313,-4.07,-4.68,0
36.333,-3.82,-4.68,0
36.353,-3.95,-4.68,0
36.375,-3.95,-4.68,0
36.396,-3.95,-4.8,0
36.417,-3.95,-4.8,0
36.441,-4.92,-5.66,0
36.462,-6.02,-6.63,0
36.482,-6.51,-7.25,0
36.507,-7,-8.47,0
36.527,-7.61,-9.2,0
36.548,-8.59,-9.57,0
36.572,-9.2,-9.69,0
36.592,-9.45,-9.81,0
36.613,-9.57,-9.93,0
36.637,-9.69,-9.93,0
36.658,-9.69,-9.93,0
36.679,,,
36.679,,,
36.693,-9.81,-9.93,0
36.713,-9.93,-9.93,0
36.724,-9.93,-10.06,0
36.748,-10.06,-10.06,0
36.769,,,
36.784,-9.93,-10.06,0
36.804,-10.06,-10.06,0
36.824,-10.06,-10.06,0
36.844,-10.06,-10.06,0
36.867,-10.18,-10.06,0
36.887,,,
36.904,-10.18,-10.06,0
36.924,-10.18,-10.06,0
36.944,-10.06,-10.18,0
36.964,-10.18,-10.18,0
36.986,-10.06,-10.18,0
37.01,-10.06,-10.18,0
37.031,,,
37.044,-10.06,-10.18,0
37.064,-10.06,-10.18,0
37.084,-10.18,-10.18,0
37.105,-10.18,-10.18,0
37.13,-10.18,-10.18,0
37.154,-10.18,-10.18,0
37.178,-10.18,-10.18,0
37.199,,,
37.21,-10.18,-10.18,0
37.23,-10.18,-10.18,0
37.25,-10.18,-10.18,1
37.272,-10.18,-10.18,1
37.297,-10.18,-10.18,1
37.321,-10.18,-10.18,1
37.342,,,
37.35,-10.18,-10.3,1
37.37,,,
37.39,-10.18,-10.3,1
37.41,-10.18,-10.3,1
37.43,-10.18,-10.18,1
37.45,-10.18,-10.3,1
37.47,-10.18,-10.3,1
37.49,-10.18,-10.3,1
37.51,,,
37.53,-10.18,-10.3,1
37.55,-10.18,-10.3,1
37.57,-10.18,-10.3,1
37.59,-9.69,-9.69,1
37.61,-9.08,-9.2,1
37.63,-8.59,-8.47,1
37.65,-8.1,-7.49,1
37.67,,,
37.69,-7.37,-6.88,1
37.71,-6.63,-6.63,1
37.73,-6.15,-6.27,1
37.75,-5.66,-6.02,1
37.77,-5.29,-5.78,1
37.79,-5.05,-5.66,1
37.81,-4.92,-5.54,1
37.83,-4.8,-5.29,1
37.85,-4.68,-5.29,1
37.87,-4.68,-5.29,1
37.891,-4.68,-5.17,1
37.911,-4.56,-5.17,1
37.933,,,
37.953,-4.31,-5.17,0
37.973,-4.31,-5.17,0
37.993,-4.31,-5.05,0
38.013,-4.31,-5.05,0
38.033,-4.19,-5.05,0
38.053,-4.19,-5.05,0
38.073,-4.31,-4.92,0
38.093,-4.19,-4.92,0
38.113,-4.19,-4.92,0
38.133,-4.19,-4.92,0
38.153,-4.19,-4.92,0
38.174,-4.19,-4.92,0
38.194,,,
38.213,-4.07,-4.92,0
38.233,-4.19,-4.92,0
38.253,-4.07,-4.92,0
38.273,-3.95,-4.92,0
38.293,-3.95,-4.8,0
38.313,-3.95,-4.8,0
38.333,-3.95,-4.8,0
38.353,-3.95,-4.8,0
38.373,-3.82,-4.8,0
38.395,-3.95,-4.68,0
38.415,-4.07,-4.8,0
38.436,-3.82,-4.8,0
38.46,-3.95,-4.8,0
38.481,-3.95,-4.8,0
38.501,,,
38.513,-3.95,-4.8,0
38.533,-3.82,-4.8,0
38.553,-3.7,-4.68,0
38.573,-3.82,-4.68,0
38.593,-3.7,-4.68,0
38.613,-3.58,-4.68,0
38.633,,,
38.653,-3.58,-4.56,0
38.673,-3.58,-4.56,0
38.693,-3.7,-4.68,0
38.713,-3.7,-4.68,0
38.733,-4.68,-5.66,0
38.753,-5.78,-6.63,0
38.773,-6.51,-7.25,0
38.793,-6.88,-8.47,0
38.813,-7.61,-9.2,0
38.833,-8.59,-9.57,0
38.853,-9.2,-9.81,0
38.874,-9.45,-9.93,0
38.894,,,
38.913,-9.57,-9.93,0
38.933,-9.69,-10.06,0
38.953,-9.81,-10.06,0
38.973,-9.93,-10.06,0
38.993,-10.06,-10.06,0
39.013,-10.06,-10.18,0
39.034,-10.06,-10.18,0
39.058,-10.06,-10.18,0
39.083,-10.18,-10.3,0
39.107,-10.18,-10.3,0
39.132,-10.18,-10.3,0
39.153,,,
39.173,-10.3,-10.3,0
39.193,-10.3,-10.3,0
39.213,-10.3,-10.3,0
39.233,-10.18,-10.3,0
39.253,-10.18,-10.3,0
39.275,-10.18,-10.3,0
39.3,-10.18,-10.3,0
39.321,,,
39.333,-10.3,-10.3,0
39.353,-10.3,-10.42,0
39.373,-10.3,-10.3,0
39.394,-10.3,-10.42,0
39.418,-10.18,-10.3,0
39.443,-10.3,-10.42,0
39.464,,,
39.473,-10.3,-10.3,0
39.493,-10.3,-10.3,0
39.513,-10.3,-10.3,0
39.537,-10.3,-10.42,1
39.562,-10.3,-10.42,1
39.586,-10.3,-10.42,1
39.611,-10.3,-10.42,1
39.631,,,
39.642,-10.3,-10.42,1
39.662,-10.3,-10.42,1
39.682,-10.3,-10.42,1
39.705,-10.42,-10.42,1
39.73,-10.3,-10.42,1
39.755,-10.3,-10.42,1
39.775,,,
39.782,-10.3,-10.42,1
39.802,,,
39.822,-10.3,-10.42,1
39.843,-10.3,-10.42,1
39.862,-10.18,-10.18,1
39.882,-9.57,-9.57,1
39.902,-8.96,-8.96,1
39.922,-8.47,-8.22,1
39.942,-7.86,-7.37,1
39.963,,,
39.983,-7,-6.88,1
40.003,-6.39,-6.51,1
40.023,-5.9,-6.15,1
40.043,-5.54,-6.02,1
40.063,-5.17,-5.78,1
40.083,-5.05,-5.66,1
40.103,-4.8,-5.54,1
40.123,-4.8,-5.41,1
40.143,-4.56,-5.29,1
40.163,-4.68,-5.17,1
40.183,-4.68,-5.17,1
40.203,-4.31,-5.17,1
40.223,,,
40.243,-4.31,-5.17,0
40.263,-4.31,-5.17,0
40.283,-4.31,-5.17,0
40.303,-4.31,-5.17,0
40.323,-4.07,-5.05,0
40.343,-4.19,-5.05,0
40.363,-4.07,-4.92,0
40.383,-4.07,-4.92,0
40.403,-4.07,-4.92,0
40.423,-4.07,-4.92,0
40.443,-4.19,-4.92,0
40.463,-4.07,-4.92,0
40.483,,,
40.503,-4.19,-4.92,0
40.523,-4.19,-4.92,0
40.543,-4.07,-4.92,0
40.563,-3.82,-4.92,0
40.583,-3.95,-4.8,0
40.603,-3.95,-4.8,0
40.623,-3.95,-4.8,0
40.643,-3.95,-4.8,0
40.663,-3.95,-4.8,0
40.683,,,
40.703,-3.95,-4.8,0
40.723,-3.95,-4.8,0
40.743,-3.95,-4.8,0
40.763,-4.07,-4.92,0
40.77,-3.95,-4.92,0
40.791,-3.95,-4.92,0
40.815,-3.95,-4.8,0
40.836,-3.82,-4.8,0
40.856,-3.82,-4.8,0
40.881,-3.7,-4.68,0
40.901,-3.7,-4.68,0
40.922,-3.7,-4.68,0
40.946,-3.7,-4.8,0
40.967,-3.95,-4.68,0
40.988,-4.19,-5.17,0
41.012,-5.41,-6.15,0
41.032,-6.27,-6.88,0
41.053,,,
41.053,,,
41.07,-6.76,-7.73,0
41.09,-7.25,-8.83,0
41.11,-8.1,-9.45,0
41.13,-9.08,-9.69,0
41.15,-9.57,-9.81,0
41.171,-9.69,-9.93,0
41.191,-9.69,-9.93,0
41.211,-9.81,-10.06,0
41.231,-9.93,-10.06,0
41.253,-9.93,-10.06,0
41.274,,,
41.291,-10.06,-10.06,0
41.311,-10.06,-10.18,0
41.331,-10.06,-10.18,0
41.351,-10.06,-10.18,0
41.372,-10.18,-10.18,0
41.397,-10.18,-10.18,0
41.418,,,
41.431,-10.18,-10.18,0
41.451,-10.18,-10.18,0
41.471,-10.18,-10.18,0
41.491,-10.18,-10.18,0
41.515,-10.18,-10.18,0
41.54,-10.18,-10.18,0
41.565,-10.18,-10.18,0
41.586,,,
41.606,-10.18,-10.3,0
41.626,-10.18,-10.3,0
41.646,-10.18,-10.3,0
41.666,-10.18,-10.3,0
41.686,-10.18,-10.3,0
41.708,-10.18,-10.3,0
41.732,-10.18,-10.3,0
41.753,,,
41.766,-10.18,-10.3,0
41.786,-10.3,-10.18,0
41.806,-10.3,-10.3,0
41.827,-10.3,-10.3,1
41.851,-10.18,-10.3,1
41.876,-10.18,-10.3,1
41.897,,,
41.906,-10.18,-10.3,1
41.926,-10.18,-10.3,1
41.946,-10.3,-10.3,1
41.97,-10.3,-10.3,1
41.996,-10.3,-10.3,1
42.019,-10.3,-10.3,1
42.044,-10.3,-10.3,1
42.064,,,
42.076,-10.3,-10.3,1
42.097,-10.3,-10.3,1
42.116,-10.3,-10.3,1
42.138,-9.93,-9.93,1
42.158,,,
42.177,-9.32,-9.45,1
42.196,-8.71,-8.71,1
42.216,-8.35,-7.86,1
42.236,-7.73,-7.12,1
42.256,-6.76,-6.76,1
42.277,-6.27,-6.39,1
42.296,-5.78,-6.15,1
42.316,-5.41,-5.9,1
42.338,-5.05,-5.66,1
42.356,,,
42.376,-4.92,-5.54,1
42.397,-4.8,-5.41,1
42.418,-4.68,-5.29,1
42.437,-4.56,-5.29,1
42.457,-4.68,-5.29,1
42.477,-4.56,-5.17,1
42.497,-4.31,-5.17,0
42.517,-4.31,-5.17,0
42.537,-4.31,-5.17,0
42.557,-4.31,-5.17,0
42.577,-4.19,-5.05,0
42.597,-4.19,-5.05,0
42.617,,,
42.637,-4.19,-4.92,0
42.657,-4.19,-4.92,0
42.677,-4.07,-4.92,0
42.697,-4.07,-4.92,0
42.717,-4.07,-4.92,0
42.737,-4.19,-4.92,0
42.757,-4.19,-4.92,0
42.777,-4.19,-5.05,0
42.798,-4.19,-5.05,0
42.818,-4.07,-5.05,0
42.838,-3.95,-4.92,0
42.859,-4.07,-4.92,0
42.883,-3.95,-4.92,0
42.904,-4.07,-4.92,0
42.924,-3.95,-4.92,0
42.949,-3.95,-4.92,0
42.969,-4.07,-4.92,0
42.99,-3.95,-4.92,0
43.014,-3.95,-4.92,0
43.035,-4.07,-5.05,0
43.055,-4.07,-5.05,0
43.08,-4.19,-5.05,0
43.1,-4.07,-4.92,0
43.121,,,
43.122,,,
43.138,-4.07,-4.92,0
43.159,-4.07,-4.92,0
43.178,-3.95,-4.92,0
43.198,-3.95,-4.92,0
43.218,-3.95,-4.8,0
43.238,-4.07,-4.8,0
43.258,-4.19,-4.92,0
43.278,-4.8,-5.54,0
43.298,-5.9,-6.63,0
43.318,,,
43.338,-6.63,-7.25,0
43.358,-7.12,-8.22,0
43.378,-7.61,-9.08,0
43.398,-8.59,-9.57,0
43.418,-9.32,-9.69,0
43.438,-9.57,-9.81,0
43.458,-9.69,-9.93,0
43.478,-9.81,-9.93,0
43.498,-9.81,-9.93,0
43.518,-9.93,-9.93,0
43.539,-10.06,-10.06,0
43.563,-10.06,-10.06,0
43.584,,,
