Time (s),Pressure 1 (kPa),Pressure 2 (kPa),Switch State
0.119,-7.61,-7.86,1
0.139,-7.61,-7.86,1
0.159,-7.49,-7.86,1
0.179,-7.49,-7.86,1
0.199,-7.49,-7.86,1
0.219,-7.61,-7.86,1
0.239,-7.49,-7.86,1
0.259,-7.49,-7.86,1
0.279,-7.49,-7.86,1
0.299,-7.49,-7.86,1
0.32,-7.61,-7.86,1
0.339,-7.61,-7.86,1
0.359,-7.49,-7.86,1
0.379,-7.61,-7.86,1
0.4,-7.61,-7.86,1
0.419,-7.61,-7.86,1
0.44,-7.49,-7.86,1
0.459,-7.61,-7.86,1
0.48,-7.49,-7.86,1
0.499,-7.61,-7.86,1
0.519,-7.49,-7.86,1
0.519,-7.61,-7.86,1
0.54,-7.61,-7.86,1
0.559,-7.49,-7.86,1
0.58,-7.49,-7.86,1
0.6,-7.49,-7.86,1
0.62,-7.61,-7.86,1
0.64,-7.49,-7.86,1
0.66,-7.61,-7.86,1
0.68,-7.49,-7.86,1
0.7,-7.49,-7.86,1
0.72,-7.61,-7.86,1
0.74,-7.61,-7.86,1
0.76,-7.61,-7.86,1
0.78,-7.49,-7.86,1
0.8,-7.61,-7.86,1
0.82,-7.49,-7.86,1
0.841,-7.49,-7.86,1
0.86,-7.61,-7.98,1
0.88,-7.49,-7.86,1
0.9,-7.49,-7.86,1
0.92,-7.49,-7.98,1
0.94,-7.61,-7.86,1
0.96,-7.49,-7.86,1
0.98,-7.49,-7.86,1
1.0,-7.49,-7.86,1
1.02,-7.61,-7.86,1
1.04,-7.61,-7.86,1
1.06,-7.61,-7.86,1
1.08,-7.61,-7.73,1
1.1,-7.61,-7.86,1
1.12,-7.49,-7.86,1
1.14,-7.61,-7.86,1
1.16,-7.61,-7.86,1
1.181,-7.61,-7.86,1
1.2,-7.49,-7.86,1
1.22,-7.61,-7.86,1
1.247,-7.49,-7.86,1
1.26,-7.49,-7.86,1
1.28,-7.61,-7.86,1
1.3,-7.61,-7.86,1
1.321,-7.49,-7.86,1
1.341,-7.61,-7.86,1
1.362,-7.61,-7.86,1
1.381,-7.49,-7.86,1
1.402,-7.61,-7.86,1
1.421,-7.49,-7.86,1
1.441,-7.49,-7.86,1
1.461,-7.61,-7.98,1
1.481,-7.61,-7.86,1
1.502,-7.49,-7.86,1
1.521,-7.61,-7.86,1
1.542,-7.61,-7.86,1
1.562,-7.49,-7.98,1
1.582,-7.61,-7.86,1
1.601,-7.49,-7.86,1
1.621,-7.61,-7.86,1
1.641,-7.49,-7.86,1
1.661,-7.61,-7.86,1
1.681,-7.61,-7.86,1
1.702,-7.61,-7.86,1
1.721,-7.49,-7.86,1
1.721,-7.61,-7.86,1
1.744,-7.49,-7.86,1
1.761,-7.49,-7.86,1
1.781,-7.61,-7.86,1
1.802,-7.61,-7.86,1
1.822,-7.61,-7.86,1
1.847,-7.61,-7.86,1
1.861,-7.61,-7.86,1
1.882,-7.61,-7.86,1
1.902,-7.61,-7.86,1
1.922,-7.61,-7.86,1
1.941,-7.49,-7.86,1
1.961,-7.49,-7.98,1
1.981,-7.49,-7.86,1
2.002,-7.61,-7.86,1
2.021,-7.61,-7.86,1
2.042,-7.49,-7.86,1
2.062,-7.49,-7.86,1
2.081,-7.61,-7.86,1
2.101,-7.49,-7.86,1
2.121,-7.49,-7.86,1
2.142,-7.61,-7.86,1
2.162,-7.49,-7.86,1
2.182,-7.61,-7.86,1
2.202,-7.61,-7.86,1
2.222,-7.49,-7.86,1
2.244,-7.49,-7.86,1
2.262,-7.49,-7.86,1
2.282,-7.49,-7.86,1
2.302,-7.49,-7.86,1
2.322,-7.49,-7.86,1
2.342,-7.49,-7.86,1
2.362,-7.61,-7.86,1
2.382,-7.61,-7.86,1
2.402,-7.61,-7.86,1
2.422,-7.49,-7.86,1
2.442,-7.61,-7.86,1
2.462,-7.61,-7.86,1
2.481,-7.61,-7.86,1
2.502,-7.49,-7.86,1
2.522,-7.61,-7.86,1
2.543,-7.49,-7.86,1
2.563,-7.49,-7.86,1
2.583,-7.61,-7.86,1
2.603,-7.61,-7.86,1
2.623,-7.49,-7.86,1
2.643,-7.61,-7.86,1
2.663,-7.49,-7.86,1
2.684,-7.61,-7.86,1
2.703,-7.61,-7.86,1
2.723,-7.61,-7.86,1
2.749,-7.61,-7.98,1
2.763,-7.61,-7.86,1
2.783,-7.49,-7.86,1
2.803,-7.61,-7.86,1
2.824,-7.61,-7.86,1
2.843,-7.61,-7.86,1
2.863,-7.61,-7.86,1
2.883,-7.49,-7.86,1
2.903,-7.49,-7.86,1
2.923,-7.49,-7.86,1
2.923,-7.61,-7.86,1
2.944,-7.49,-7.86,1
2.964,-7.61,-7.86,1
2.984,-7.61,-7.86,1
3.003,-7.61,-7.86,1
3.024,-7.49,-7.86,1
3.044,-7.61,-7.86,1
3.064,-7.61,-7.86,1
3.084,-7.61,-7.86,1
3.104,-7.61,-7.86,1
3.124,-7.61,-7.86,1
3.143,-7.61,-7.86,1
3.163,-7.49,-7.86,1
3.184,-7.49,-7.86,1
3.204,-7.61,-7.86,1
3.223,-7.49,-7.86,1
3.244,-7.61,-7.86,1
3.264,-7.49,-7.86,1
3.284,-7.49,-7.86,1
3.303,-7.61,-7.86,1
3.324,-7.61,-7.86,1
3.344,-7.49,-7.86,1
3.364,-7.49,-7.86,1
3.385,-7.37,-7.86,1
3.404,-7.37,-7.86,1
3.424,-7.37,-7.86,1
3.444,-7.37,-7.86,1
3.464,-7.37,-7.86,1
3.484,-7.37,-7.86,1
3.504,-7.49,-7.86,1
3.524,-7.49,-7.86,1
3.544,-7.49,-7.86,1
3.564,-7.49,-7.86,1
3.584,-7.49,-7.86,1
3.604,-7.49,-7.86,1
3.624,-7.49,-7.86,1
3.644,-7.49,-7.86,1
3.664,-7.49,-7.86,1
3.684,-7.49,-7.98,1
3.705,-7.49,-7.86,1
3.725,-7.61,-8.22,1
3.745,-7.49,-8.59,1
3.765,-7.49,-8.83,1
3.785,-7.49,-9.08,1
3.805,-7.49,-8.83,1
3.825,-7.61,-8.59,1
3.845,-7.49,-8.35,1
3.866,-7.61,-8.22,1
3.885,-7.49,-8.1,1
3.905,-7.61,-8.1,1
3.925,-7.61,-8.1,1
3.945,-7.49,-7.98,1
3.965,-7.49,-7.98,1
3.985,-7.61,-7.98,1
4.005,-7.49,-7.98,1
4.025,-7.61,-7.98,1
4.046,-7.61,-7.98,1
4.065,-7.61,-7.86,1
4.085,-7.61,-7.86,1
4.105,-7.49,-7.98,1
4.125,-7.61,-7.98,1
4.145,-7.61,-7.86,1
4.166,-7.49,-7.86,1
4.186,-7.49,-7.86,1
4.206,-7.49,-7.98,1
4.225,-7.61,-7.98,1
4.245,-7.61,-7.86,1
4.266,-7.61,-7.98,1
4.286,-7.61,-7.86,1
4.305,-7.49,-7.86,1
4.325,-7.61,-7.98,1
4.346,-7.61,-7.98,1
4.365,-7.61,-7.86,1
4.386,-7.61,-7.98,1
4.406,-7.49,-7.86,1
4.425,-7.61,-7.86,1
4.446,-7.61,-7.86,1
4.466,-7.61,-7.86,1
4.486,-7.61,-7.86,1
4.506,-7.61,-7.86,1
4.526,-7.61,-7.86,1
4.546,-7.49,-7.86,1
4.566,-7.61,-7.86,1
4.586,-7.49,-7.86,1
4.606,-7.49,-7.98,1
4.626,-7.49,-7.86,1
4.647,-7.49,-7.86,1
4.666,-6.88,-7.61,1
4.686,-6.27,-7.0,1
4.706,-5.9,-6.63,1
4.727,-5.41,-6.51,1
4.746,-5.05,-6.15,1
4.766,-4.8,-5.9,1
4.786,-4.56,-5.66,1
4.806,-4.44,-5.54,1
4.826,-4.31,-5.41,1
4.847,-4.31,-5.29,1
4.866,-4.31,-5.29,1
4.886,-4.44,-5.17,1
4.906,-4.31,-5.17,1
4.926,-4.19,-5.05,1
4.947,-3.95,-5.05,1
4.967,-3.82,-5.05,0
4.986,-3.95,-5.05,0
5.007,-3.95,-5.17,0
5.027,-3.95,-5.05,0
5.047,-3.95,-5.05,0
5.067,-3.95,-4.92,0
5.087,-3.95,-4.92,0
5.106,-3.82,-4.92,0
5.127,-3.82,-4.92,0
5.147,-3.95,-4.92,0
5.166,-3.82,-4.92,0
5.187,-3.95,-4.92,0
5.207,-3.82,-4.92,0
5.227,-3.95,-4.92,0
5.247,-3.95,-4.92,0
5.267,-3.7,-4.92,0
5.286,-3.7,-4.92,0
5.307,-3.82,-4.8,0
5.327,-3.82,-4.92,0
5.327,-3.82,-4.8,0
5.347,-3.82,-4.8,0
5.367,-3.95,-4.8,0
5.387,-3.82,-4.8,0
5.407,-3.7,-4.8,0
5.427,-3.82,-4.8,0
5.447,-3.82,-4.92,0
5.467,-3.82,-4.92,0
5.487,-3.82,-4.92,0
5.507,-3.82,-4.92,0
5.527,-3.7,-4.8,0
5.549,-3.7,-4.8,0
5.567,-3.7,-4.68,0
5.587,-3.58,-4.68,0
5.607,-3.7,-4.68,0
5.627,-3.7,-4.68,0
5.647,-3.7,-4.68,0
5.667,-3.82,-4.8,0
5.687,-3.82,-4.8,0
5.707,-4.19,-5.17,0
5.727,-5.29,-6.15,0
5.727,-6.15,-6.88,0
5.747,-6.76,-7.86,0
5.767,-7.12,-8.83,0
5.788,-7.86,-9.32,0
5.807,-8.83,-9.57,0
5.827,-9.32,-9.81,0
5.847,-9.69,-9.81,0
5.867,-9.81,-9.93,0
5.888,-9.81,-9.93,0
5.907,-9.93,-9.93,0
5.927,-9.93,-9.93,0
5.948,-10.06,-10.06,0
5.968,-10.06,-9.93,0
5.987,-10.06,-9.93,0
6.007,-10.18,-10.06,0
6.027,-10.06,-10.06,0
6.047,-10.18,-10.06,0
6.067,-10.18,-10.06,0
6.087,-10.18,-10.06,0
6.107,-10.18,-10.06,0
6.127,-10.3,-10.06,0
6.127,-10.3,-10.06,0
6.148,-10.18,-10.06,0
6.168,-10.18,-10.06,0
6.188,-10.3,-10.06,0
6.208,-10.3,-10.18,0
6.228,-10.06,-10.18,0
6.247,-10.3,-10.18,0
6.268,-10.3,-10.18,0
6.288,-10.3,-10.18,0
6.308,-10.18,-10.18,0
6.327,-10.18,-10.18,0
6.348,-10.18,-10.18,0
6.367,-10.3,-10.18,0
6.387,-10.3,-10.06,0
6.408,-10.3,-10.18,0
6.428,-10.3,-10.18,1
6.447,-10.3,-10.18,1
6.468,-10.3,-10.18,1
6.488,-10.3,-10.18,1
6.507,-10.18,-10.18,1
6.528,-10.18,-10.18,1
6.528,-10.3,-10.18,1
6.548,-10.3,-10.18,1
6.568,-10.3,-10.18,1
6.589,-10.3,-10.18,1
6.608,-10.3,-10.18,1
6.629,-10.3,-10.18,1
6.649,-10.42,-10.18,1
6.668,-10.18,-10.06,1
6.689,-9.57,-9.45,1
6.709,-8.96,-8.71,1
6.729,-8.59,-7.86,1
6.749,-7.98,-7.25,1
6.768,-7.25,-6.88,1
6.788,-6.51,-6.51,1
6.808,-5.9,-6.15,1
6.829,-5.54,-5.9,1
6.848,-5.29,-5.78,1
6.868,-5.05,-5.66,1
6.888,-4.92,-5.54,1
6.908,-4.8,-5.29,1
6.929,-4.8,-5.29,1
6.95,-4.56,-5.17,1
6.97,-4.44,-5.17,1
6.989,-4.19,-5.29,0
7.009,-4.19,-5.17,0
7.03,-4.19,-5.29,0
7.049,-4.07,-5.17,0
7.069,-4.07,-5.17,0
7.09,-4.19,-5.17,0
7.11,-4.07,-5.05,0
7.129,-3.82,-5.05,0
7.15,-3.95,-5.05,0
7.17,-3.95,-5.05,0
7.19,-4.07,-5.05,0
7.21,-3.95,-5.05,0
7.229,-3.95,-5.05,0
7.25,-4.07,-5.05,0
7.27,-3.95,-5.05,0
7.29,-3.82,-5.05,0
7.31,-3.82,-5.05,0
7.33,-3.82,-5.05,0
7.33,-3.82,-4.92,0
7.35,-3.95,-4.92,0
7.37,-3.95,-4.92,0
7.391,-3.95,-4.92,0
7.41,-3.95,-4.8,0
7.43,-3.95,-4.92,0
7.45,-3.82,-4.92,0
7.47,-3.82,-4.92,0
7.49,-3.95,-4.92,0
7.51,-3.95,-5.05,0
7.53,-3.95,-4.8,0
7.55,-3.95,-4.92,0
7.57,-3.82,-4.8,0
7.59,-3.7,-4.8,0
7.61,-3.7,-4.8,0
7.63,-3.7,-4.68,0
7.65,-3.7,-4.8,0
7.67,-3.7,-4.68,0
7.69,-3.7,-4.8,0
7.71,-3.82,-4.8,0
7.73,-3.82,-4.8,0
7.73,-4.56,-5.54,0
7.75,-5.54,-6.51,0
7.771,-6.39,-7.12,0
7.791,-6.88,-8.22,0
7.811,-7.25,-9.08,0
7.831,-8.1,-9.45,0
7.851,-8.96,-9.57,0
7.871,-9.45,-9.69,0
7.891,-9.69,-9.81,0
7.911,-9.69,-9.81,0
7.931,-9.81,-9.81,0
7.951,-9.81,-9.93,0
7.971,-9.93,-9.93,0
7.991,-10.06,-9.93,0
8.011,-10.06,-9.93,0
8.03,-10.06,-10.06,0
8.051,-10.06,-10.06,0
8.071,-10.18,-10.06,0
8.091,-10.18,-10.06,0
8.11,-10.06,-10.06,0
8.131,-10.18,-10.06,0
8.151,-10.18,-10.06,0
8.171,-10.18,-10.06,0
8.191,-10.3,-10.06,0
8.211,-10.18,-10.06,0
8.231,-10.18,-10.06,0
8.251,-10.18,-10.06,0
8.272,-10.18,-10.18,0
8.291,-10.18,-10.18,0
8.312,-10.3,-10.18,0
8.332,-10.3,-10.18,0
8.351,-10.3,-10.18,0
8.372,-10.18,-10.06,0
8.392,-10.18,-10.18,0
8.412,-10.18,-10.18,0
8.431,-10.3,-10.18,0
8.452,-10.3,-10.18,0
8.472,-10.3,-10.06,0
8.492,-10.3,-10.06,1
8.511,-10.18,-10.18,1
8.531,-10.18,-10.18,1
8.531,-10.18,-10.18,1
8.552,-10.18,-10.18,1
8.572,-10.18,-10.18,1
8.592,-10.18,-10.18,1
8.612,-10.3,-10.18,1
8.632,-10.3,-10.18,1
8.652,-10.3,-10.18,1
8.672,-10.3,-10.18,1
8.692,-10.3,-10.18,1
8.711,-10.3,-10.18,1
8.732,-10.06,-9.81,1
8.752,-9.45,-9.32,1
8.772,-8.83,-8.47,1
8.791,-8.35,-7.73,1
8.811,-7.86,-7.12,1
8.832,-7.0,-6.76,1
8.852,-6.27,-6.39,1
8.872,-5.78,-6.02,1
8.892,-5.29,-5.9,1
8.912,-5.17,-5.66,1
8.932,-5.05,-5.54,1
8.932,-4.92,-5.41,1
8.952,-4.8,-5.29,1
8.972,-4.8,-5.29,1
8.992,-4.68,-5.17,1
9.012,-4.31,-5.17,1
9.032,-4.19,-5.17,0
9.052,-4.19,-5.17,0
9.072,-4.19,-5.17,0
9.092,-4.07,-5.17,0
9.112,-4.19,-5.05,0
9.132,-4.19,-5.05,0
9.152,-4.07,-5.05,0
9.172,-4.07,-4.92,0
9.192,-3.95,-4.92,0
9.212,-3.95,-4.92,0
9.232,-3.95,-4.92,0
9.253,-3.95,-4.92,0
9.272,-3.95,-4.92,0
9.292,-4.07,-4.92,0
9.312,-4.07,-4.92,0
9.332,-3.95,-4.92,0
9.332,-3.82,-4.92,0
9.353,-3.82,-4.8,0
9.373,-3.95,-4.8,0
9.392,-3.95,-4.8,0
9.412,-3.95,-4.8,0
9.432,-3.95,-4.8,0
9.452,-3.95,-4.8,0
9.472,-3.95,-4.8,0
9.493,-3.82,-4.8,0
9.512,-3.82,-4.8,0
9.532,-3.95,-4.92,0
9.552,-3.95,-4.92,0
9.573,-3.95,-4.8,0
9.593,-3.82,-4.8,0
9.612,-3.7,-4.68,0
9.633,-3.7,-4.68,0
9.652,-3.58,-4.68,0
9.673,-3.58,-4.8,0
9.692,-3.7,-4.68,0
9.712,-3.7,-4.68,0
9.732,-3.7,-4.8,0
9.753,-3.82,-4.8,0
9.773,-4.44,-5.54,0
9.792,-5.66,-6.51,0
9.812,-6.39,-7.12,0
9.832,-6.88,-8.47,0
9.852,-7.37,-9.2,0
9.873,-8.35,-9.57,0
9.892,-9.08,-9.69,0
9.913,-9.57,-9.81,0
9.933,-9.69,-9.93,0
9.953,-9.81,-9.93,0
9.973,-9.93,-9.93,0
9.992,-9.93,-9.93,0
10.013,-10.06,-10.06,0
10.033,-10.06,-10.06,0
10.053,-10.06,-10.06,0
10.073,-10.18,-10.06,0
10.092,-10.18,-10.06,0
10.112,-10.18,-10.06,0
10.133,-10.18,-10.06,0
10.153,-10.18,-10.06,0
10.173,-10.3,-10.06,0
10.194,-10.18,-10.06,0
10.213,-10.3,-10.06,0
10.233,-10.3,-10.06,0
10.253,-10.3,-10.06,0
10.273,-10.18,-10.06,0
10.293,-10.18,-10.18,0
10.313,-10.18,-10.18,0
10.333,-10.3,-10.06,0
10.353,-10.18,-10.18,0
10.373,-10.18,-10.18,0
10.393,-10.18,-10.18,0
10.413,-10.18,-10.18,0
10.433,-10.3,-10.18,0
10.453,-10.3,-10.18,0
10.473,-10.3,-10.18,0
10.493,-10.3,-10.3,1
10.513,-10.3,-10.18,1
10.533,-10.18,-10.18,1
10.533,-10.18,-10.18,1
10.553,-10.18,-10.18,1
10.574,-10.3,-10.18,1
10.594,-10.18,-10.18,1
10.614,-10.3,-10.3,1
10.634,-10.3,-10.18,1
10.653,-10.3,-10.18,1
10.673,-10.3,-10.18,1
10.694,-10.3,-10.18,1
10.714,-10.42,-10.3,1
10.734,-9.93,-9.69,1
10.753,-9.2,-9.08,1
10.774,-8.71,-8.1,1
10.793,-8.22,-7.37,1
10.813,-7.49,-6.88,1
10.833,-6.63,-6.51,1
10.853,-6.02,-6.15,1
10.874,-5.41,-5.9,1
10.893,-5.17,-5.66,1
10.913,-5.05,-5.54,1
10.934,-4.92,-5.41,1
10.934,-4.8,-5.29,1
10.955,-4.8,-5.29,1
10.975,-4.68,-5.17,1
10.994,-4.44,-5.17,1
11.014,-4.19,-5.17,0
11.035,-4.19,-5.17,0
11.055,-4.19,-5.05,0
11.074,-4.07,-5.05,0
11.094,-4.07,-5.05,0
11.115,-4.07,-4.92,0
11.134,-4.07,-4.92,0
11.155,-3.95,-4.92,0
11.174,-3.95,-4.92,0
11.195,-3.95,-4.92,0
11.215,-3.95,-4.92,0
11.234,-3.95,-4.92,0
11.255,-3.95,-4.92,0
11.274,-4.07,-4.92,0
11.294,-3.82,-4.92,0
11.314,-3.82,-4.92,0
11.335,-3.7,-4.92,0
11.335,-3.82,-4.8,0
11.356,-3.82,-4.8,0
11.382,-3.82,-4.8,0
11.395,-3.95,-4.8,0
11.415,-3.95,-4.8,0
11.436,-3.82,-4.8,0
11.455,-3.7,-4.8,0
11.476,-3.82,-4.8,0
11.496,-3.95,-4.92,0
11.515,-3.82,-4.92,0
11.535,-3.95,-4.8,0
11.556,-3.82,-4.8,0
11.575,-3.7,-4.68,0
11.596,-3.7,-4.68,0
11.615,-3.7,-4.68,0
11.635,-3.7,-4.68,0
11.655,-3.7,-4.68,0
11.675,-3.7,-4.68,0
11.695,-3.82,-4.68,0
11.715,-3.95,-4.68,0
11.736,-4.92,-5.78,0
11.756,-6.02,-6.63,0
11.776,-6.63,-7.49,0
11.796,-7.0,-8.71,0
11.816,-7.61,-9.2,0
11.837,-8.71,-9.57,0
11.856,-9.32,-9.69,0
11.876,-9.57,-9.81,0
11.896,-9.81,-9.93,0
11.916,-9.93,-9.93,0
11.936,-9.93,-9.93,0
11.956,-9.93,-10.06,0
11.976,-10.06,-10.06,0
11.996,-10.18,-10.06,0
12.016,-10.18,-10.06,0
12.037,-10.18,-10.06,0
12.057,-10.06,-10.06,0
12.076,-10.06,-10.18,0
12.096,-10.18,-10.18,0
12.116,-10.18,-10.06,0
12.136,-10.18,-10.06,0
12.136,-10.3,-10.06,0
12.157,-10.18,-10.06,0
12.176,-10.18,-10.06,0
12.197,-10.18,-10.06,0
12.216,-10.18,-10.06,0
12.236,-10.3,-10.18,0
12.257,-10.18,-10.18,0
12.276,-10.18,-10.18,0
12.297,-10.18,-10.18,0
12.317,-10.18,-10.18,0
12.337,-10.18,-10.18,0
12.357,-10.18,-10.18,0
12.376,-10.3,-10.18,0
12.397,-10.3,-10.18,0
12.417,-10.3,-10.18,0
12.436,-10.3,-10.18,1
12.457,-10.3,-10.18,1
12.477,-10.3,-10.18,1
12.496,-10.3,-10.18,1
12.516,-10.18,-10.18,1
12.536,-10.3,-10.18,1
12.536,-10.3,-10.18,1
12.556,-10.3,-10.18,1
12.577,-10.3,-10.18,1
12.597,-10.3,-10.18,1
12.617,-10.3,-10.18,1
12.637,-10.3,-10.3,1
12.656,-10.3,-10.18,1
12.677,-9.69,-9.57,1
12.697,-8.96,-8.83,1
12.717,-8.47,-7.86,1
12.738,-7.98,-7.25,1
12.757,-7.25,-6.76,1
12.776,-6.51,-6.39,1
12.797,-5.78,-6.15,1
12.817,-5.41,-5.9,1
12.837,-5.05,-5.66,1
12.857,-4.92,-5.54,1
12.877,-4.92,-5.41,1
12.896,-4.8,-5.29,1
12.917,-4.8,-5.17,1
12.936,-4.56,-5.17,1
12.936,-4.31,-5.17,1
12.957,-4.07,-5.05,0
12.977,-4.07,-5.17,0
12.997,-4.07,-5.17,0
13.016,-4.07,-5.05,0
13.037,-4.07,-5.05,0
13.057,-4.07,-4.92,0
13.077,-4.07,-4.92,0
13.097,-3.95,-4.92,0
13.117,-3.95,-4.8,0
13.137,-3.95,-4.8,0
13.157,-3.95,-4.8,0
13.177,-3.95,-4.92,0
13.197,-4.07,-4.92,0
13.217,-4.07,-4.92,0
13.244,-3.82,-4.8,0
13.257,-3.7,-4.8,0
13.277,-3.82,-4.8,0
13.297,-3.82,-4.8,0
13.317,-3.95,-4.8,0
13.337,-3.95,-4.68,0
13.337,-4.07,-4.68,0
13.358,-3.95,-4.68,0
13.378,-3.82,-4.68,0
13.398,-3.82,-4.8,0
13.418,-3.82,-4.8,0
13.438,-3.95,-4.8,0
13.458,-3.95,-4.8,0
13.477,-3.95,-4.8,0
13.499,-3.95,-4.68,0
13.517,-3.82,-4.68,0
13.537,-3.7,-4.68,0
13.557,-3.58,-4.68,0
13.577,-3.7,-4.68,0
13.598,-3.7,-4.56,0
13.617,-3.7,-4.68,0
13.637,-3.95,-4.68,0
13.658,-4.19,-4.92,0
13.678,-5.29,-6.02,0
13.697,-6.27,-6.76,0
13.718,-6.76,-7.86,0
13.737,-7.12,-8.83,0
13.757,-7.98,-9.32,0
13.778,-8.96,-9.69,0
13.798,-9.32,-9.81,0
13.817,-9.69,-9.93,0
13.838,-9.81,-9.93,0
13.858,-9.81,-9.93,0
13.878,-9.93,-10.06,0
13.897,-9.93,-10.06,0
13.918,-10.06,-9.93,0
13.937,-10.06,-9.93,0
13.958,-10.06,-10.06,0
13.978,-10.06,-10.06,0
13.997,-10.06,-10.18,0
14.018,-10.06,-10.18,0
14.038,-10.18,-10.18,0
14.058,-10.18,-10.18,0
14.078,-10.18,-10.06,0
14.098,-10.18,-10.18,0
14.117,-10.18,-10.18,0
14.138,-10.18,-10.18,0
14.138,-10.18,-10.18,0
14.158,-10.3,-10.18,0
14.178,-10.3,-10.18,0
14.198,-10.3,-10.18,0
14.218,-10.3,-10.18,0
14.244,-10.18,-10.18,0
14.258,-10.18,-10.18,0
14.278,-10.18,-10.18,0
14.298,-10.3,-10.18,0
14.319,-10.3,-10.18,0
14.339,-10.3,-10.18,0
14.359,-10.3,-10.18,1
14.378,-10.3,-10.18,1
14.398,-10.18,-10.18,1
14.418,-10.18,-10.3,1
14.439,-10.3,-10.18,1
14.458,-10.3,-10.3,1
14.479,-10.3,-10.18,1
14.498,-10.3,-10.18,1
14.518,-10.42,-10.18,1
14.538,-10.3,-10.3,1
14.559,-10.3,-10.3,1
14.578,-10.42,-10.3,1
14.598,-10.3,-10.3,1
14.618,-10.18,-9.93,1
14.639,-9.57,-9.45,1
14.658,-8.83,-8.59,1
14.679,-8.35,-7.73,1
14.699,-7.86,-7.12,1
14.718,-7.0,-6.76,1
14.741,-6.51,-6.39,1
14.759,-5.78,-6.02,1
14.782,-5.29,-5.78,1
14.798,-5.05,-5.66,1
14.818,-4.92,-5.41,1
14.838,-4.8,-5.41,1
14.858,-4.68,-5.29,1
14.878,-4.68,-5.17,1
14.898,-4.56,-5.17,1
14.919,-4.31,-5.17,1
14.939,-4.07,-5.17,0
14.96,-4.07,-5.17,0
14.98,-4.07,-5.17,0
15.0,-4.07,-5.05,0
15.019,-4.07,-5.05,0
15.04,-4.07,-4.92,0
15.06,-4.07,-4.92,0
15.08,-3.95,-4.92,0
15.1,-3.95,-4.92,0
15.12,-3.95,-4.92,0
15.14,-3.95,-4.92,0
15.16,-3.95,-4.92,0
15.179,-4.07,-4.92,0
15.199,-4.19,-4.92,0
15.219,-3.95,-4.92,0
15.24,-3.82,-4.8,0
15.26,-3.82,-4.8,0
15.279,-3.95,-4.8,0
15.3,-3.95,-4.68,0
15.32,-3.95,-4.68,0
15.339,-4.07,-4.68,0
15.36,-3.95,-4.68,0
15.379,-3.82,-4.68,0
15.4,-3.95,-4.8,0
15.42,-3.82,-4.8,0
15.44,-3.95,-4.8,0
15.46,-3.95,-4.8,0
15.48,-3.95,-4.68,0
15.5,-3.82,-4.68,0
15.52,-3.82,-4.68,0
15.54,-3.7,-4.68,0
15.56,-3.7,-4.56,0
15.58,-3.7,-4.68,0
15.6,-3.7,-4.68,0
15.629,-3.7,-4.68,0
15.64,-3.95,-4.68,0
15.66,-4.31,-5.17,0
15.68,-5.54,-6.27,0
15.7,-6.27,-7.0,0
15.72,-6.76,-8.22,0
15.747,-7.25,-9.08,0
15.747,-8.22,-9.45,0
15.768,-8.96,-9.69,0
15.788,-9.45,-9.81,0
15.808,-9.57,-9.93,0
15.827,-9.69,-9.93,0
15.847,-9.69,-10.06,0
15.868,-9.93,-10.06,0
15.887,-10.06,-9.93,0
15.908,-10.06,-10.06,0
15.927,-10.06,-10.06,0
15.947,-10.18,-10.18,0
15.968,-10.06,-10.18,0
15.988,-10.06,-10.18,0
16.008,-10.18,-10.18,0
16.028,-10.3,-10.18,0
16.048,-10.3,-10.18,0
16.067,-10.3,-10.06,0
16.088,-10.18,-10.18,0
16.108,-10.3,-10.18,0
16.127,-10.18,-10.18,0
16.147,-10.3,-10.18,0
16.168,-10.3,-10.18,0
16.188,-10.3,-10.18,0
16.208,-10.18,-10.18,0
16.228,-10.3,-10.18,0
16.249,-10.18,-10.18,0
16.267,-10.18,-10.18,0
16.288,-10.3,-10.18,0
16.308,-10.18,-10.18,0
16.328,-10.3,-10.18,0
16.349,-10.3,-10.18,0
16.368,-10.3,-10.18,1
16.388,-10.18,-10.18,1
16.408,-10.18,-10.3,1
16.428,-10.18,-10.18,1
16.448,-10.18,-10.3,1
16.468,-10.3,-10.3,1
16.488,-10.3,-10.3,1
16.508,-10.3,-10.18,1
16.528,-10.3,-10.3,1
16.548,-10.3,-10.3,1
16.568,-10.3,-10.3,1
16.588,-10.42,-10.18,1
16.608,-10.3,-10.3,1
16.629,-9.93,-9.81,1
16.648,-9.32,-9.2,1
16.668,-8.71,-8.35,1
16.688,-8.22,-7.61,1
16.708,-7.61,-7.0,1
16.728,-6.88,-6.63,1
16.748,-6.27,-6.27,1
16.768,-5.54,-5.9,1
16.788,-5.17,-5.78,1
16.808,-5.05,-5.54,1
16.828,-4.92,-5.41,1
16.848,-4.8,-5.29,1
16.868,-4.68,-5.29,1
16.888,-4.8,-5.17,1
16.908,-4.56,-5.17,1
16.928,-4.31,-5.17,0
16.948,-4.19,-5.17,0
16.949,-4.07,-5.17,0
16.969,-4.07,-5.17,0
16.989,-4.07,-5.05,0
17.009,-4.19,-5.05,0
17.029,-4.19,-4.92,0
17.049,-4.07,-4.92,0
17.069,-3.95,-4.92,0
17.089,-3.95,-4.92,0
17.109,-4.07,-4.92,0
17.129,-3.95,-4.92,0
17.149,-4.07,-4.92,0
17.169,-4.19,-4.92,0
17.189,-4.07,-5.05,0
17.209,-3.82,-4.92,0
17.229,-3.82,-4.92,0
17.25,-3.82,-4.92,0
17.269,-3.95,-4.8,0
17.289,-3.95,-4.8,0
17.309,-3.95,-4.8,0
17.329,-4.07,-4.92,0
17.349,-3.95,-4.8,0
17.37,-3.82,-4.8,0
17.389,-3.82,-4.92,0
17.41,-3.82,-4.92,0
17.429,-3.82,-4.92,0
17.45,-3.82,-4.92,0
17.47,-3.95,-4.8,0
17.489,-3.82,-4.8,0
17.509,-3.7,-4.68,0
17.529,-3.7,-4.68,0
17.55,-3.7,-4.68,0
17.569,-3.7,-4.68,0
17.59,-3.7,-4.68,0
17.609,-3.7,-4.68,0
17.63,-3.82,-4.8,0
17.649,-4.68,-5.54,0
17.669,-5.9,-6.51,0
17.689,-6.63,-7.25,0
17.71,-7.0,-8.47,0
17.73,-7.61,-9.2,0
17.749,-8.59,-9.45,0
17.77,-9.2,-9.69,0
17.789,-9.57,-9.81,0
17.809,-9.81,-9.93,0
17.83,-9.81,-9.81,0
17.849,-9.93,-9.93,0
17.869,-9.93,-9.93,0
17.89,-10.06,-10.06,0
17.909,-10.06,-10.06,0
17.93,-10.06,-10.06,0
17.95,-10.18,-10.06,0
17.97,-10.06,-10.06,0
17.989,-10.06,-10.18,0
18.009,-10.18,-10.06,0
18.03,-10.3,-10.06,0
18.05,-10.3,-10.06,0
18.07,-10.3,-10.06,0
18.09,-10.18,-10.06,0
18.109,-10.18,-10.06,0
18.13,-10.3,-10.06,0
18.149,-10.3,-10.18,0
18.169,-10.3,-10.18,0
18.19,-10.18,-10.18,0
18.21,-10.18,-10.18,0
18.23,-10.18,-10.18,0
18.25,-10.18,-10.18,0
18.27,-10.18,-10.06,0
18.29,-10.18,-10.18,0
18.309,-10.3,-10.18,0
18.33,-10.3,-10.18,0
18.35,-10.18,-10.18,0
18.37,-10.3,-10.18,1
18.39,-10.3,-10.18,1
18.41,-10.18,-10.18,1
18.43,-10.18,-10.18,1
18.45,-10.18,-10.18,1
18.47,-10.3,-10.18,1
18.489,-10.3,-10.18,1
18.51,-10.3,-10.18,1
18.529,-10.3,-10.18,1
18.55,-10.3,-10.18,1
18.57,-10.3,-10.18,1
18.59,-10.3,-10.18,1
18.611,-10.3,-10.18,1
18.631,-9.69,-9.57,1
18.65,-9.08,-9.08,1
18.671,-8.59,-8.1,1
18.69,-8.1,-7.37,1
18.711,-7.49,-6.88,1
18.73,-6.76,-6.51,1
18.75,-6.15,-6.15,1
18.77,-5.41,-5.9,1
18.79,-5.17,-5.78,1
18.81,-4.92,-5.66,1
18.83,-4.92,-5.41,1
18.85,-4.8,-5.41,1
18.87,-4.68,-5.29,1
18.89,-4.8,-5.29,1
18.91,-4.56,-5.17,1
18.93,-4.31,-5.17,0
18.95,-4.07,-5.17,0
18.971,-4.07,-5.17,0
18.991,-4.19,-5.17,0
19.011,-4.07,-5.05,0
19.031,-4.19,-5.05,0
19.051,-4.19,-4.92,0
19.071,-4.07,-4.92,0
19.091,-3.95,-4.92,0
19.111,-3.95,-4.92,0
19.131,-3.95,-4.92,0
19.151,-3.95,-4.92,0
19.171,-3.95,-4.92,0
19.191,-4.07,-4.92,0
19.211,-4.19,-4.92,0
19.231,-3.95,-4.92,0
19.251,-3.82,-4.92,0
19.271,-3.82,-4.92,0
19.291,-3.82,-4.8,0
19.311,-3.95,-4.8,0
19.331,-3.95,-4.8,0
19.351,-4.07,-4.8,0
19.351,-3.95,-4.8,0
19.372,-3.82,-4.8,0
19.392,-3.82,-4.92,0
19.412,-3.82,-4.92,0
19.432,-3.95,-4.92,0
19.451,-3.95,-4.92,0
19.471,-3.95,-4.8,0
19.491,-3.95,-4.8,0
19.511,-3.7,-4.68,0
19.531,-3.7,-4.8,0
19.551,-3.7,-4.68,0
19.571,-3.7,-4.68,0
19.592,-3.82,-4.8,0
19.611,-3.82,-4.8,0
19.632,-4.07,-4.92,0
19.651,-5.05,-5.9,0
19.671,-6.15,-6.76,0
19.691,-6.76,-7.61,0
19.712,-7.12,-8.71,0
19.731,-7.86,-9.32,0
19.751,-8.83,-9.57,0
19.771,-9.32,-9.81,0
19.792,-9.57,-9.81,0
19.812,-9.69,-9.81,0
19.832,-9.69,-9.93,0
19.853,-9.93,-9.93,0
19.872,-10.06,-10.06,0
19.892,-10.06,-9.93,0
19.912,-10.06,-9.93,0
19.932,-10.18,-10.06,0
19.951,-10.06,-10.06,0
19.972,-10.06,-10.06,0
19.992,-10.18,-10.06,0
20.012,-10.18,-10.06,0
20.031,-10.3,-10.06,0
20.052,-10.18,-10.06,0
20.072,-10.18,-10.06,0
20.092,-10.18,-10.06,0
20.112,-10.18,-10.06,0
20.131,-10.18,-10.18,0
20.152,-10.3,-10.06,0
20.173,-10.18,-10.18,0
20.192,-10.18,-10.18,0
20.213,-10.18,-10.18,0
20.232,-10.18,-10.18,0
20.253,-10.18,-10.06,0
20.272,-10.18,-10.18,0
20.293,-10.3,-10.18,0
20.312,-10.3,-10.18,0
20.332,-10.3,-10.18,0
20.353,-10.3,-10.18,0
20.373,-10.3,-10.18,1
20.392,-10.18,-10.18,1
20.412,-10.18,-10.18,1
20.433,-10.18,-10.18,1
20.453,-10.3,-10.18,1
20.473,-10.3,-10.18,1
20.492,-10.3,-10.18,1
20.513,-10.3,-10.18,1
20.532,-10.3,-10.18,1
20.553,-10.3,-10.3,1
20.573,-10.3,-10.18,1
20.594,-10.3,-10.18,1
20.613,-10.3,-10.18,1
20.633,-9.57,-9.45,1
20.653,-8.96,-8.71,1
20.674,-8.47,-7.86,1
20.693,-7.98,-7.25,1
20.713,-7.25,-6.76,1
20.733,-6.63,-6.39,1
20.753,-6.02,-6.15,1
20.773,-5.29,-5.9,1
20.793,-5.05,-5.66,1
20.814,-4.92,-5.54,1
20.834,-4.8,-5.41,1
20.853,-4.68,-5.41,1
20.873,-4.68,-5.17,1
20.893,-4.68,-5.17,1
20.913,-4.56,-5.17,1
20.933,-4.19,-5.17,0
20.953,-4.07,-5.17,0
20.973,-4.07,-5.17,0
20.994,-4.19,-5.05,0
21.014,-4.07,-5.05,0
21.034,-4.07,-5.05,0
21.053,-4.19,-5.05,0
21.074,-4.07,-4.92,0
21.093,-3.95,-4.92,0
21.113,-3.95,-4.92,0
21.134,-3.95,-5.05,0
21.154,-3.95,-4.92,0
21.174,-3.95,-5.05,0
21.193,-4.07,-4.92,0
21.213,-4.19,-5.05,0
21.233,-3.95,-4.92,0
21.254,-3.7,-4.92,0
21.274,-3.82,-4.8,0
21.293,-3.95,-4.8,0
21.313,-3.95,-4.8,0
21.333,-3.95,-4.8,0
21.354,-4.07,-4.8,0
21.375,-4.07,-4.8,0
21.395,-3.95,-4.8,0
21.414,-3.95,-4.92,0
21.434,-3.95,-4.92,0
21.455,-3.95,-4.92,0
21.475,-3.95,-4.8,0
21.495,-3.95,-4.8,0
21.515,-3.95,-4.8,0
21.535,-3.95,-4.68,0
21.555,-3.7,-4.68,0
21.575,-3.7,-4.68,0
21.595,-3.7,-4.68,0
21.615,-3.82,-4.68,0
21.635,-3.82,-4.8,0
21.655,-4.19,-5.05,0
21.674,-5.29,-6.15,0
21.694,-6.27,-6.88,0
21.715,-6.76,-7.98,0
21.735,-7.12,-8.96,0
21.754,-8.1,-9.45,0
21.754,-8.96,-9.69,0
21.775,-9.45,-9.81,0
21.794,-9.57,-9.93,0
21.815,-9.69,-9.93,0
21.835,-9.81,-9.93,0
21.855,-9.93,-9.93,0
21.875,-10.06,-10.06,0
21.895,-10.06,-10.06,0
21.915,-10.06,-10.06,0
21.935,-10.06,-10.06,0
21.955,-10.06,-10.18,0
21.975,-10.06,-10.18,0
21.995,-10.18,-10.18,0
22.015,-10.3,-10.18,0
22.035,-10.18,-10.18,0
22.055,-10.3,-10.18,0
22.075,-10.18,-10.18,0
22.096,-10.18,-10.06,0
22.115,-10.18,-10.06,0
22.135,-10.3,-10.18,0
22.154,-10.3,-10.18,0
22.154,-10.3,-10.18,0
22.174,-10.3,-10.18,0
22.195,-10.18,-10.18,0
22.215,-10.18,-10.18,0
22.235,-10.18,-10.18,0
22.254,-10.18,-10.18,0
22.275,-10.3,-10.18,0
22.294,-10.3,-10.18,0
22.315,-10.3,-10.18,0
22.334,-10.3,-10.18,1
22.355,-10.3,-10.18,1
22.375,-10.18,-10.18,1
22.394,-10.3,-10.18,1
22.415,-10.3,-10.18,1
22.435,-10.3,-10.18,1
22.455,-10.3,-10.18,1
22.474,-10.3,-10.18,1
22.495,-10.3,-10.18,1
22.514,-10.3,-10.3,1
22.535,-10.3,-10.3,1
22.555,-10.3,-10.3,1
22.555,-10.3,-10.18,1
22.575,-10.06,-9.93,1
22.596,-9.45,-9.32,1
22.615,-8.83,-8.47,1
22.635,-8.35,-7.73,1
22.655,-7.73,-7.0,1
22.676,-7.0,-6.63,1
22.696,-6.39,-6.39,1
22.715,-5.78,-6.02,1
22.735,-5.17,-5.78,1
22.755,-5.05,-5.66,1
22.776,-4.8,-5.41,1
22.796,-4.8,-5.41,1
22.816,-4.68,-5.29,1
22.835,-4.68,-5.17,1
22.856,-4.68,-5.17,1
22.875,-4.44,-5.17,0
22.896,-4.07,-5.17,0
22.916,-4.07,-5.17,0
22.935,-3.95,-5.05,0
22.955,-4.07,-5.05,0
22.975,-4.07,-5.05,0
22.995,-4.19,-4.92,0
23.015,-4.19,-4.92,0
23.038,-4.07,-4.92,0
23.056,-3.95,-4.92,0
23.075,-3.95,-4.92,0
23.095,-4.07,-4.92,0
23.116,-4.07,-4.92,0
23.136,-4.07,-4.92,0
23.155,-4.19,-4.92,0
23.175,-4.07,-4.92,0
23.195,-3.82,-4.92,0
23.215,-3.82,-4.92,0
23.236,-3.82,-4.8,0
23.255,-3.95,-4.8,0
23.282,-3.95,-4.8,0
23.296,-4.07,-4.8,0
23.315,-4.07,-4.8,0
23.335,-3.95,-4.8,0
23.355,-3.82,-4.92,0
23.375,-3.82,-4.92,0
23.395,-3.95,-4.92,0
23.416,-3.95,-4.92,0
23.437,-3.82,-4.92,0
23.456,-3.82,-4.8,0
23.475,-3.82,-4.8,0
23.496,-3.82,-4.68,0
23.516,-3.7,-4.8,0
23.536,-3.7,-4.68,0
23.555,-3.7,-4.68,0
23.582,-3.82,-4.8,0
23.596,-3.82,-4.68,0
23.616,-4.44,-5.41,0
23.636,-5.66,-6.39,0
23.656,-6.39,-7.12,0
23.676,-6.88,-8.35,0
23.696,-7.37,-9.08,0
23.716,-8.35,-9.45,0
23.736,-9.08,-9.69,0
23.756,-9.57,-9.81,0
23.756,-9.69,-9.81,0
23.776,-9.69,-9.93,0
23.796,-9.81,-9.93,0
23.816,-9.93,-9.93,0
23.836,-10.06,-9.93,0
23.857,-10.06,-10.06,0
23.876,-10.06,-10.06,0
23.896,-10.06,-10.06,0
23.916,-10.06,-10.06,0
23.937,-10.18,-10.18,0
23.956,-10.18,-10.18,0
23.976,-10.3,-10.18,0
23.996,-10.3,-10.18,0
24.017,-10.3,-10.18,0
24.036,-10.18,-10.18,0
24.057,-10.18,-10.18,0
24.076,-10.18,-10.18,0
24.097,-10.3,-10.18,0
24.116,-10.3,-10.18,0
24.137,-10.3,-10.18,0
24.156,-10.3,-10.18,0
24.156,-10.3,-10.18,0
24.176,-10.18,-10.18,0
24.196,-10.18,-10.18,0
24.216,-10.3,-10.18,0
24.236,-10.3,-10.18,0
24.257,-10.3,-10.18,0
24.277,-10.3,-10.18,0
24.297,-10.3,-10.18,1
24.316,-10.3,-10.18,1
24.337,-10.18,-10.3,1
24.356,-10.3,-10.3,1
24.377,-10.3,-10.3,1
24.396,-10.3,-10.3,1
24.417,-10.3,-10.3,1
24.436,-10.3,-10.3,1
24.456,-10.3,-10.3,1
24.477,-10.3,-10.18,1
24.496,-10.42,-10.3,1
24.516,-10.3,-10.3,1
24.536,-10.3,-10.18,1
24.557,-9.93,-9.81,1
24.577,-9.32,-9.2,1
24.597,-8.71,-8.35,1
24.617,-8.35,-7.49,1
24.637,-7.61,-7.0,1
24.657,-6.88,-6.63,1
24.677,-6.27,-6.27,1
24.697,-5.66,-6.02,1
24.717,-5.17,-5.78,1
24.738,-4.92,-5.66,1
24.757,-4.8,-5.41,1
24.777,-4.8,-5.41,1
24.797,-4.68,-5.29,1
24.817,-4.68,-5.29,1
24.837,-4.68,-5.17,1
24.857,-4.44,-5.17,0
24.877,-4.19,-5.17,0
24.897,-4.07,-5.17,0
24.917,-3.95,-5.05,0
24.937,-4.07,-5.05,0
24.957,-4.07,-5.05,0
24.978,-4.19,-4.92,0
24.998,-4.19,-4.92,0
25.018,-4.07,-4.92,0
25.037,-3.95,-4.92,0
25.058,-3.95,-4.92,0
25.078,-3.95,-4.92,0
25.098,-4.07,-4.92,0
25.118,-4.07,-4.92,0
25.138,-4.19,-4.92,0
25.165,-4.07,-4.8,0
25.178,-3.82,-4.92,0
25.198,-3.82,-4.8,0
25.218,-3.82,-4.8,0
25.238,-3.95,-4.8,0
25.258,-3.95,-4.8,0
25.278,-3.95,-4.8,0
25.298,-4.07,-4.8,0
25.318,-3.95,-4.8,0
25.338,-3.82,-4.8,0
25.358,-3.82,-4.92,0
25.379,-3.82,-4.92,0
25.399,-3.95,-4.8,0
25.419,-3.82,-4.8,0
25.439,-3.82,-4.8,0
25.458,-3.95,-4.8,0
25.479,-3.7,-4.8,0
25.499,-3.58,-4.68,0
25.519,-3.58,-4.68,0
25.538,-3.58,-4.68,0
25.558,-3.7,-4.8,0
25.579,-3.82,-4.8,0
25.599,-4.68,-5.66,0
25.619,-5.78,-6.63,0
25.639,-6.63,-7.37,0
25.659,-7.0,-8.59,0
25.678,-7.61,-9.2,0
25.699,-8.59,-9.57,0
25.719,-9.32,-9.81,0
25.738,-9.57,-9.81,0
25.759,-9.57,-9.93,0
25.759,-9.81,-9.93,0
25.78,-10.06,-9.93,0
25.799,-10.06,-9.93,0
25.82,-10.06,-9.93,0
25.84,-10.18,-10.06,0
25.86,-10.18,-10.06,0
25.88,-10.06,-10.06,0
25.9,-10.06,-10.06,0
25.919,-10.18,-10.06,0
25.939,-10.3,-10.06,0
25.96,-10.3,-10.06,0
25.98,-10.3,-10.06,0
25.999,-10.3,-10.06,0
26.02,-10.18,-10.06,0
26.039,-10.18,-10.06,0
26.059,-10.3,-10.06,0
26.08,-10.3,-10.06,0
26.1,-10.3,-10.06,0
26.12,-10.3,-10.18,0
26.14,-10.3,-10.18,0
26.16,-10.18,-10.18,0
26.181,-10.18,-10.18,0
26.2,-10.18,-10.18,0
26.22,-10.3,-10.18,0
26.241,-10.3,-10.18,0
26.26,-10.3,-10.18,0
26.281,-10.3,-10.18,0
26.301,-10.18,-10.18,1
26.321,-10.18,-10.3,1
26.341,-10.18,-10.18,1
26.36,-10.3,-10.18,1
26.381,-10.3,-10.18,1
26.4,-10.3,-10.18,1
26.42,-10.3,-10.18,1
26.441,-10.3,-10.18,1
26.461,-10.3,-10.18,1
26.48,-10.3,-10.18,1
26.5,-10.42,-10.18,1
26.521,-10.3,-10.18,1
26.54,-10.3,-10.18,1
26.561,-9.69,-9.57,1
26.561,-9.08,-8.96,1
26.581,-8.59,-7.98,1
26.602,-8.1,-7.37,1
26.622,-7.37,-6.76,1
26.641,-6.76,-6.39,1
26.662,-6.15,-6.15,1
26.682,-5.66,-5.9,1
26.701,-5.17,-5.66,1
26.722,-4.92,-5.54,1
26.742,-4.8,-5.41,1
26.761,-4.68,-5.41,1
26.782,-4.56,-5.29,1
26.801,-4.68,-5.17,1
26.821,-4.68,-5.17,1
26.841,-4.44,-5.17,0
26.861,-4.07,-5.17,0
26.882,-4.07,-5.17,0
26.901,-4.07,-5.17,0
26.922,-4.07,-5.17,0
26.942,-4.07,-5.05,0
26.962,-4.19,-5.05,0
26.962,-4.19,-5.05,0
26.982,-3.95,-4.92,0
27.003,-3.95,-4.92,0
27.023,-3.95,-4.92,0
27.042,-3.95,-4.92,0
27.062,-3.95,-5.05,0
27.083,-4.07,-5.05,0
27.102,-4.19,-5.05,0
27.122,-4.07,-5.05,0
27.142,-3.82,-4.92,0
27.162,-3.82,-4.92,0
27.183,-3.82,-4.8,0
27.202,-3.82,-4.8,0
27.222,-3.82,-4.8,0
27.242,-3.95,-4.8,0
27.262,-4.07,-4.8,0
27.283,-4.07,-4.92,0
27.302,-3.82,-4.92,0
27.323,-3.82,-4.92,0
27.342,-3.82,-4.92,0
27.362,-3.95,-4.8,0
27.362,-3.82,-4.8,0
27.382,-4.07,-4.8,0
27.402,-3.95,-4.68,0
27.423,-3.7,-4.68,0
27.442,-3.58,-4.68,0
27.463,-3.7,-4.68,0
27.483,-3.7,-4.68,0
27.503,-3.82,-4.8,0
27.522,-4.07,-4.8,0
27.542,-5.17,-6.02,0
27.562,-6.15,-6.76,0
27.583,-6.76,-7.73,0
27.603,-7.12,-8.83,0
27.623,-7.98,-9.32,0
27.642,-8.83,-9.57,0
27.663,-9.32,-9.81,0
27.683,-9.57,-9.81,0
27.703,-9.69,-9.93,0
27.723,-9.81,-9.93,0
27.742,-10.06,-10.06,0
27.762,-10.06,-10.06,0
27.763,-10.06,-10.06,0
27.784,-10.18,-10.06,0
27.804,-10.18,-10.06,0
27.824,-10.06,-10.18,0
27.843,-10.06,-10.18,0
27.864,-10.3,-10.18,0
27.884,-10.3,-10.18,0
27.904,-10.3,-10.18,0
27.924,-10.18,-10.18,0
27.944,-10.3,-10.06,0
27.964,-10.18,-10.06,0
27.984,-10.3,-10.06,0
28.004,-10.3,-10.06,0
28.024,-10.3,-10.18,0
28.043,-10.3,-10.18,0
28.064,-10.3,-10.18,0
28.084,-10.18,-10.18,0
28.104,-10.18,-10.18,0
28.124,-10.18,-10.18,0
28.144,-10.18,-10.18,0
28.164,-10.3,-10.18,0
28.164,-10.3,-10.18,0
28.185,-10.3,-10.18,0
28.204,-10.3,-10.18,1
28.224,-10.3,-10.18,1
28.249,-10.18,-10.18,1
28.264,-10.18,-10.18,1
28.284,-10.3,-10.18,1
28.304,-10.3,-10.18,1
28.325,-10.3,-10.18,1
28.348,-10.3,-10.18,1
28.365,-10.3,-10.18,1
28.384,-10.3,-10.18,1
28.404,-10.3,-10.3,1
28.424,-10.42,-10.18,1
28.445,-10.42,-10.18,1
28.464,-10.18,-9.93,1
28.485,-9.57,-9.45,1
28.506,-8.96,-8.59,1
28.527,,,
28.544,-8.47,-7.73,1
28.564,-7.86,-7.12,1
28.584,-7.12,-6.63,1
28.605,-6.51,-6.39,1
28.624,-5.9,-6.15,1
28.645,-5.29,-5.9,1
28.664,-5.05,-5.66,1
28.685,-4.8,-5.54,1
28.705,-4.8,-5.54,1
28.725,,,
28.749,-4.68,-5.41,1
28.765,-4.68,-5.29,1
28.785,-4.8,-5.29,1
28.805,-4.56,-5.17,1
28.825,-4.19,-5.17,0
28.845,-4.07,-5.17,0
28.864,-3.95,-5.17,0
28.884,-4.07,-5.05,0
28.905,-4.07,-4.92,0
28.925,-4.19,-4.92,0
28.945,-4.19,-4.92,0
28.965,-4.07,-4.92,0
28.986,,,
29.005,-3.95,-4.92,0
29.025,-3.95,-4.92,0
29.045,-3.95,-4.92,0
29.065,-4.07,-4.92,0
29.085,-3.95,-4.92,0
29.106,-4.19,-4.92,0
29.126,-4.19,-4.92,0
29.146,-3.82,-4.92,0
29.165,-3.82,-4.92,0
29.186,,,
29.206,-3.82,-4.8,0
29.225,-3.95,-4.92,0
29.245,-3.95,-4.92,0
29.266,-3.95,-4.92,0
29.286,-4.19,-4.8,0
29.305,-4.19,-4.92,0
29.326,-3.95,-4.92,0
29.345,-3.95,-4.92,0
29.365,-3.95,-5.05,0
29.383,-3.95,-4.92,0
29.403,-3.95,-4.92,0
29.424,-3.95,-4.92,0
29.448,-3.95,-4.8,0
29.469,-3.82,-4.8,0
29.489,-3.7,-4.8,0
29.514,-3.7,-4.8,0
29.534,-3.7,-4.8,0
29.555,,,
29.564,-3.7,-4.8,0
29.583,-3.95,-4.8,0
29.603,-4.44,-5.29,0
29.623,,,
29.643,-5.66,-6.39,0
29.664,-6.51,-7.12,0
29.684,-6.88,-8.22,0
29.703,-7.37,-9.08,0
29.723,-8.35,-9.45,0
29.743,-9.08,-9.69,0
29.763,-9.45,-9.81,0
29.784,-9.69,-9.93,0
29.797,-9.69,-9.93,0
29.818,,,
29.837,-9.93,-9.93,0
29.858,-10.06,-9.93,0
29.877,-10.06,-9.93,0
29.897,-10.06,-9.93,0
29.918,-10.06,-9.93,0
29.937,-10.18,-10.06,0
29.958,-10.06,-10.06,0
29.981,-10.06,-10.06,0
30.006,-10.18,-10.18,0
30.026,,,
30.038,-10.3,-10.06,0
30.058,-10.3,-10.06,0
30.078,-10.18,-10.06,0
30.1,-10.18,-10.06,0
30.124,-10.18,-10.06,0
30.148,-10.18,-10.18,0
30.173,-10.3,-10.18,0
30.194,,,
30.197,,,
30.197,,,
30.218,-10.3,-10.18,0
30.238,-10.3,-10.18,0
30.258,-10.3,-10.18,0
30.278,-10.3,-10.18,0
30.297,-10.18,-10.18,0
30.317,-10.18,-10.18,0
30.337,,,
30.358,-10.3,-10.18,0
30.378,-10.3,-10.18,0
30.397,-10.3,-10.18,0
30.417,-10.3,-10.18,0
30.438,-10.3,-10.18,1
30.46,-10.18,-10.18,1
30.484,-10.18,-10.18,1
30.505,,,
30.517,-10.3,-10.18,1
30.537,-10.3,-10.18,1
30.558,-10.3,-10.3,1
30.579,-10.3,-10.18,1
30.604,-10.3,-10.3,1
30.628,-10.3,-10.18,1
30.653,-10.3,-10.18,1
30.672,,,
30.684,-10.3,-10.18,1
30.704,-10.42,-10.3,1
30.724,-10.3,-10.18,1
30.747,-9.93,-9.81,1
30.767,,,
30.785,-9.45,-9.32,1
30.804,-8.83,-8.47,1
30.825,-8.35,-7.61,1
30.844,-7.73,-7.0,1
30.864,-7.0,-6.63,1
30.884,-6.39,-6.27,1
30.904,-5.9,-6.02,1
30.925,-5.29,-5.78,1
30.944,-4.92,-5.66,1
30.964,,,
30.985,-4.8,-5.41,1
31.005,-4.68,-5.41,1
31.025,-4.68,-5.29,1
31.046,-4.56,-5.29,1
31.065,-4.68,-5.17,1
31.085,-4.56,-5.17,0
31.105,-4.19,-5.17,0
31.125,-4.07,-5.17,0
31.145,-3.95,-5.17,0
31.165,-4.07,-5.05,0
31.185,-4.07,-5.05,0
31.205,-4.19,-5.05,0
31.226,,,
31.245,-4.19,-4.92,0
31.265,-4.19,-4.92,0
31.285,-3.95,-4.92,0
31.305,-3.95,-4.92,0
31.325,-3.95,-4.92,0
31.345,-4.07,-4.92,0
31.365,-3.95,-4.92,0
31.385,-4.19,-4.92,0
31.406,-4.19,-4.92,0
31.423,,,
31.444,-3.95,-4.92,0
31.463,-3.82,-4.8,0
31.483,-3.82,-4.8,0
31.503,-3.82,-4.8,0
31.523,-3.95,-4.68,0
31.544,-3.95,-4.8,0
31.563,-4.19,-4.68,0
31.583,-4.07,-4.8,0
31.603,-3.95,-4.8,0
31.623,-3.82,-4.8,0
31.643,-3.82,-4.8,0
31.664,-3.95,-4.8,0
31.689,-3.95,-4.8,0
31.709,-3.82,-4.68,0
31.729,-4.07,-4.68,0
31.754,-3.95,-4.68,0
31.774,-3.7,-4.68,0
31.795,-3.7,-4.68,0
31.819,-3.58,-4.8,0
31.84,-3.7,-4.68,0
31.861,,,
31.88,-3.82,-4.68,0
31.901,-4.56,-5.54,0
31.92,-5.78,-6.51,0
31.94,-6.51,-7.25,0
31.96,-7.0,-8.47,0
31.981,-7.49,-9.2,0
32.001,-8.47,-9.57,0
32.02,-9.08,-9.69,0
32.041,-9.45,-9.81,0
32.061,,,
32.08,-9.57,-9.93,0
32.101,-9.69,-9.93,0
32.12,-9.93,-10.06,0
32.14,-10.06,-10.06,0
32.16,-10.06,-10.06,0
32.181,-10.06,-10.06,0
32.201,-10.18,-10.18,0
32.221,-10.06,-10.18,0
32.244,-10.06,-10.18,0
32.271,-10.3,-10.06,0
32.294,-10.3,-10.18,0
32.315,,,
32.325,-10.3,-10.18,0
32.345,-10.3,-10.18,0
32.365,-10.3,-10.06,0
32.389,-10.18,-10.18,0
32.414,-10.18,-10.18,0
32.438,-10.3,-10.18,0
32.459,,,
32.465,-10.3,-10.06,0
32.486,,,
32.505,-10.3,-10.18,0
32.525,-10.3,-10.18,0
32.545,-10.18,-10.18,0
32.565,-10.18,-10.18,0
32.584,-10.18,-10.18,0
32.606,-10.3,-10.18,0
32.627,,,
32.644,-10.3,-10.18,0
32.665,-10.42,-10.18,0
32.685,-10.3,-10.18,0
32.705,-10.3,-10.3,0
32.725,-10.3,-10.3,1
32.749,-10.18,-10.18,1
32.77,,,
32.785,-10.3,-10.3,1
32.805,-10.3,-10.3,1
32.825,-10.3,-10.3,1
32.845,-10.3,-10.3,1
32.869,-10.3,-10.3,1
32.893,-10.3,-10.3,1
32.917,-10.3,-10.3,1
32.938,,,
32.945,-10.3,-10.3,1
32.965,,,
32.985,-10.42,-10.3,1
33.005,-10.42,-10.3,1
33.025,-10.3,-10.3,1
33.045,-9.81,-9.69,1
33.065,-9.2,-9.08,1
33.085,-8.59,-8.1,1
33.106,-8.22,-7.49,1
33.125,-7.49,-6.88,1
33.146,-6.76,-6.39,1
33.167,-6.15,-6.15,1
33.188,-5.66,-5.9,1
33.212,-5.17,-5.66,1
33.233,-4.92,-5.54,1
33.253,-4.68,-5.41,1
33.278,-4.56,-5.29,1
33.298,-4.56,-5.17,1
33.319,,,
33.325,-4.56,-5.05,1
33.345,-4.56,-4.92,1
33.365,-4.44,-4.92,0
33.385,,,
33.405,-3.95,-4.92,0
33.425,-3.95,-4.92,0
33.445,-3.82,-4.92,0
33.466,-3.82,-4.8,0
33.486,-3.95,-4.8,0
33.506,-4.07,-4.8,0
33.526,-4.07,-4.68,0
33.546,-3.95,-4.68,0
33.566,-3.82,-4.68,0
33.586,-3.82,-4.68,0
33.606,-3.7,-4.68,0
33.626,-3.82,-4.68,0
33.647,,,
33.666,-3.82,-4.68,0
33.685,-3.95,-4.68,0
33.705,-3.95,-4.68,0
33.726,-3.58,-4.68,0
33.746,-3.7,-4.68,0
33.766,-3.7,-4.56,0
33.786,-3.7,-4.56,0
33.806,-3.7,-4.56,0
33.825,-3.82,-4.56,0
33.845,,,
33.866,-3.95,-4.68,0
33.885,-3.95,-4.68,0
33.906,-3.7,-4.68,0
33.926,-3.7,-4.8,0
33.946,-3.7,-4.8,0
33.966,-3.7,-4.8,0
33.985,-3.7,-4.68,0
34.006,-3.7,-4.68,0
34.026,-3.82,-4.56,0
34.046,-3.7,-4.56,0
34.065,-3.46,-4.56,0
34.086,-3.58,-4.56,0
34.106,,,
34.126,-3.58,-4.56,0
34.146,-3.7,-4.68,0
34.166,-3.82,-4.68,0
34.186,-4.92,-5.78,0
34.206,-6.02,-6.63,0
34.226,-6.63,-7.49,0
34.246,-7.0,-8.71,0
34.261,-7.86,-9.2,0
34.282,-8.71,-9.57,0
34.306,-9.32,-9.69,0
34.326,-9.57,-9.81,0
34.346,-9.57,-9.93,0
34.372,-9.81,-10.06,0
34.392,-10.06,-10.06,0
34.416,-10.06,-10.06,0
34.441,-10.06,-10.06,0
34.466,-10.06,-10.06,0
34.49,-10.06,-10.18,0
34.511,,,
34.511,,,
34.522,-10.06,-10.18,0
34.541,-10.18,-10.18,0
34.561,-10.3,-10.18,0
34.584,-10.3,-10.18,0
34.609,-10.3,-10.18,0
34.633,-10.3,-10.18,0
34.654,,,
34.661,-10.18,-10.18,0
34.682,,,
34.702,-10.18,-10.18,0
34.722,-10.18,-10.18,0
34.742,-10.3,-10.3,0
34.762,-10.3,-10.18,0
34.782,-10.3,-10.3,0
34.802,-10.3,-10.3,0
34.821,,,
34.842,-10.3,-10.3,0
34.862,-10.18,-10.3,0
34.882,-10.18,-10.3,0
34.902,-10.3,-10.3,0
34.921,-10.3,-10.3,0
34.945,-10.3,-10.3,0
34.969,-10.3,-10.3,0
34.989,,,
35.002,-10.3,-10.3,1
35.022,-10.3,-10.3,1
35.041,-10.18,-10.3,1
35.064,-10.3,-10.3,1
35.088,-10.3,-10.3,1
35.113,-10.3,-10.3,1
35.133,,,
35.145,-10.3,-10.3,1
35.165,-10.3,-10.3,1
35.185,-10.3,-10.3,1
35.207,-10.3,-10.3,1
35.232,-10.3,-10.3,1
35.256,-10.42,-10.3,1
35.28,-10.42,-10.3,1
35.301,,,
35.304,,,
35.324,-10.06,-10.06,1
35.345,-9.45,-9.45,1
35.365,-8.83,-8.59,1
35.385,-8.47,-7.73,1
35.405,-7.86,-7.12,1
35.425,-7.0,-6.63,1
35.445,-6.51,-6.39,1
35.465,-6.02,-6.02,1
35.486,-5.41,-5.78,1
35.506,-5.05,-5.66,1
35.526,,,
35.545,-4.8,-5.54,1
35.566,-4.68,-5.41,1
35.585,-4.68,-5.29,1
35.605,-4.68,-5.17,1
35.625,-4.8,-5.17,1
35.646,-4.68,-5.05,0
35.665,-4.31,-5.05,0
35.686,-4.07,-5.05,0
35.705,-3.95,-5.05,0
35.725,-3.95,-5.05,0
35.746,-4.07,-4.92,0
35.766,-4.19,-4.92,0
35.785,,,
35.806,-4.19,-4.92,0
35.825,-4.19,-4.8,0
35.845,-3.95,-4.8,0
35.866,-3.95,-4.8,0
35.875,-3.95,-4.8,0
35.895,-3.95,-4.8,0
35.915,,,
35.935,-3.95,-4.92,0
35.956,-4.07,-4.8,0
35.976,-4.07,-4.8,0
35.996,-4.07,-4.8,0
36.016,-3.7,-4.8,0
36.035,-3.82,-4.8,0
36.056,-3.82,-4.68,0
36.075,-3.82,-4.68,0
36.095,-3.82,-4.68,0
36.115,,,
36.135,-3.95,-4.68,0
36.155,-4.07,-4.68,0
36.175,-4.07,-4.8,0
36.195,-3.82,-4.8,0
36.215,-3.82,-4.8,0
36.236,-3.82,-4.8,0
36.255,-3.82,-4.68,0
36.275,-3.95,-4.68,0
36.296,-3.95,-4.68,0
36.315,-3.95,-4.56,0
36.335,-3.82,-4.56,0
36.356,-3.58,-4.56,0
36.379,-3.58,-4.56,0
36.398,-3.7,-4.56,0
36.419,,,
36.436,-3.7,-4.68,0
36.455,-4.44,-5.17,0
36.475,-5.66,-6.27,0
36.496,-6.39,-7.0,0
36.515,-6.88,-8.22,0
36.535,-7.37,-9.08,0
36.555,-8.35,-9.45,0
36.577,-9.08,-9.69,0
36.595,-9.45,-9.81,0
36.616,,,
36.635,-9.57,-9.93,0
36.656,-9.69,-9.93,0
36.675,-10.06,-10.06,0
36.686,-10.06,-10.06,0
36.71,-10.06,-10.06,0
36.735,-10.06,-10.06,0
36.756,,,
36.766,-10.06,-10.06,0
36.787,-10.06,-10.18,0
36.806,-10.06,-10.18,0
36.829,-10.18,-10.18,0
36.853,-10.3,-10.18,0
36.877,-10.3,-10.18,0
36.899,,,
36.907,-10.3,-10.18,0
36.927,,,
36.947,-10.3,-10.18,0
36.966,-10.06,-10.18,0
36.986,-10.18,-10.18,0
37.007,-10.3,-10.18,0
37.027,-10.3,-10.18,0
37.046,-10.3,-10.18,0
37.067,,,
37.087,-10.3,-10.3,0
37.089,,,
37.109,-10.18,-10.3,0
37.129,-10.18,-10.3,0
37.149,-10.18,-10.3,0
37.169,-10.18,-10.3,0
37.19,-10.3,-10.3,0
37.21,-10.3,-10.3,0
37.234,,,
37.249,-10.3,-10.3,0
37.269,-10.3,-10.3,0
37.289,-10.3,-10.3,1
37.31,-10.18,-10.3,1
37.333,-10.18,-10.3,1
37.352,-10.3,-10.3,1
37.376,,,
37.389,-10.3,-10.3,1
37.409,-10.3,-10.3,1
37.43,-10.3,-10.3,1
37.452,-10.3,-10.3,1
37.473,-10.3,-10.42,1
37.501,-10.3,-10.42,1
37.524,-10.42,-10.42,1
37.546,,,
37.561,-10.42,-10.3,1
37.581,-10.3,-10.3,1
37.601,-9.81,-9.81,1
37.621,-9.2,-9.2,1
37.645,-8.71,-8.22,1
37.664,-8.22,-7.49,1
37.682,,,
37.701,-7.49,-7.0,1
37.721,-6.76,-6.76,1
37.742,-6.27,-6.51,1
37.761,-5.66,-6.39,1
37.781,-5.17,-6.39,1
37.801,-4.92,-6.27,1
37.821,-4.8,-6.27,1
37.841,-4.68,-6.27,1
37.862,-4.68,-6.15,1
37.882,-4.68,-6.15,1
37.903,-4.68,-6.15,1
37.923,-4.44,-6.15,0
37.943,-4.07,-6.15,0
37.967,-4.07,-6.15,0
37.988,-3.95,-6.15,0
38.006,-3.95,-6.15,0
38.033,-4.19,-6.02,0
38.054,-4.19,-6.02,0
38.076,-4.19,-6.02,0
38.099,-4.07,-6.02,0
38.12,,,
38.128,-3.95,-6.02,0
38.148,-3.95,-6.15,0
38.164,-3.95,-6.02,0
38.184,,,
38.203,-3.95,-6.15,0
38.223,-4.19,-6.15,0
38.243,-4.07,-6.15,0
38.263,-4.07,-6.15,0
38.284,-3.82,-6.02,0
38.303,-3.82,-6.02,0
