Time (s),Pressure 1 (kPa),Pressure 2 (kPa),Switch State
0.122,-7.61,-7.86,1
0.142,-7.49,-7.86,1
0.162,-7.61,-7.86,1
0.182,-7.49,-7.86,1
0.203,-7.49,-7.86,1
0.223,-7.61,-7.86,1
0.243,-7.49,-7.86,1
0.263,-7.61,-7.86,1
0.283,-7.49,-7.86,1
0.303,-7.61,-7.86,1
0.322,-7.61,-7.86,1
0.342,-7.61,-7.86,1
0.362,-7.49,-7.86,1
0.382,-7.49,-7.86,1
0.403,-7.61,-7.86,1
0.422,-7.49,-7.86,1
0.442,-7.49,-7.86,1
0.462,-7.61,-7.86,1
0.483,-7.49,-7.86,1
0.503,-7.49,-7.86,1
0.523,-7.49,-7.86,1
0.523,-7.61,-7.86,1
0.544,-7.61,-7.86,1
0.563,-7.49,-7.86,1
0.583,-7.49,-7.86,1
0.604,-7.61,-7.86,1
0.624,-7.61,-7.86,1
0.644,-7.61,-7.86,1
0.663,-7.49,-7.86,1
0.683,-7.49,-7.86,1
0.704,-7.49,-7.86,1
0.723,-7.49,-7.86,1
0.743,-7.49,-7.86,1
0.763,-7.49,-7.86,1
0.783,-7.61,-7.86,1
0.804,-7.61,-7.86,1
0.823,-7.49,-7.86,1
0.844,-7.61,-7.98,1
0.863,-7.61,-7.86,1
0.883,-7.49,-7.86,1
0.903,-7.61,-7.86,1
0.924,-7.49,-7.86,1
0.924,-7.49,-7.86,1
0.945,-7.61,-7.86,1
0.964,-7.49,-7.86,1
0.984,-7.49,-7.86,1
1.005,-7.49,-7.86,1
1.024,-7.49,-7.86,1
1.045,-7.61,-7.86,1
1.065,-7.49,-7.86,1
1.085,-7.61,-7.86,1
1.104,-7.49,-7.86,1
1.124,-7.49,-7.86,1
1.144,-7.61,-7.86,1
1.164,-7.61,-7.98,1
1.184,-7.61,-7.98,1
1.204,-7.49,-7.86,1
1.225,-7.61,-7.86,1
1.244,-7.61,-7.86,1
1.265,-7.49,-7.86,1
1.285,-7.49,-7.86,1
1.305,-7.49,-7.86,1
1.324,-7.49,-7.86,1
1.324,-7.49,-7.98,1
1.345,-7.49,-7.86,1
1.365,-7.61,-7.86,1
1.385,-7.49,-7.86,1
1.404,-7.49,-7.86,1
1.425,-7.49,-7.86,1
1.445,-7.61,-7.98,1
1.465,-7.61,-7.86,1
1.485,-7.61,-7.86,1
1.505,-7.61,-7.86,1
1.524,-7.61,-7.86,1
1.545,-7.61,-7.86,1
1.565,-7.49,-7.86,1
1.585,-7.61,-7.86,1
1.605,-7.49,-7.86,1
1.624,-7.49,-7.86,1
1.645,-7.61,-7.86,1
1.665,-7.49,-7.86,1
1.684,-7.49,-7.86,1
1.705,-7.49,-7.86,1
1.725,-7.61,-7.86,1
1.725,-7.61,-7.86,1
1.745,-7.49,-7.86,1
1.765,-7.49,-7.86,1
1.785,-7.61,-7.86,1
1.805,-7.61,-7.86,1
1.825,-7.49,-7.86,1
1.845,-7.49,-7.86,1
1.865,-7.49,-7.86,1
1.886,-7.49,-7.86,1
1.906,-7.49,-7.86,1
1.925,-7.61,-7.86,1
1.945,-7.61,-7.86,1
1.965,-7.49,-7.86,1
1.986,-7.61,-7.86,1
2.006,-7.61,-7.86,1
2.025,-7.49,-7.86,1
2.045,-7.61,-7.86,1
2.065,-7.61,-7.86,1
2.085,-7.61,-7.86,1
2.105,-7.49,-7.86,1
2.125,-7.61,-7.86,1
2.145,-7.61,-7.86,1
2.165,-7.61,-7.86,1
2.186,-7.61,-7.86,1
2.205,-7.49,-7.86,1
2.226,-7.61,-7.86,1
2.246,-7.49,-7.86,1
2.265,-7.49,-7.86,1
2.286,-7.61,-7.86,1
2.306,-7.49,-7.86,1
2.326,-7.61,-7.86,1
2.346,-7.49,-7.86,1
2.366,-7.61,-7.86,1
2.386,-7.49,-7.86,1
2.406,-7.49,-7.86,1
2.425,-7.49,-7.86,1
2.446,-7.49,-7.86,1
2.466,-7.61,-7.86,1
2.486,-7.61,-7.98,1
2.506,-7.61,-7.86,1
2.526,-7.49,-7.86,1
2.546,-7.61,-7.86,1
2.567,-7.49,-7.86,1
2.586,-7.49,-7.86,1
2.607,-7.49,-7.86,1
2.627,-7.49,-7.86,1
2.647,-7.61,-7.86,1
2.667,-7.61,-7.86,1
2.687,-7.61,-7.86,1
2.707,-7.61,-7.86,1
2.726,-7.61,-7.86,1
2.746,-7.49,-7.86,1
2.766,-7.61,-7.86,1
2.787,-7.49,-7.86,1
2.806,-7.49,-7.86,1
2.827,-7.61,-7.86,1
2.847,-7.49,-7.86,1
2.867,-7.61,-7.86,1
2.886,-7.61,-7.86,1
2.906,-7.49,-7.86,1
2.927,-7.49,-7.86,1
2.947,-7.49,-7.86,1
2.968,-7.49,-7.86,1
2.987,-7.49,-7.86,1
3.008,-7.49,-7.86,1
3.027,-7.61,-7.86,1
3.048,-7.49,-7.86,1
3.068,-7.49,-7.86,1
3.088,-7.61,-7.86,1
3.107,-7.61,-7.86,1
3.134,-7.61,-7.86,1
3.148,-7.61,-7.98,1
3.167,-7.61,-7.86,1
3.188,-7.49,-7.86,1
3.207,-7.61,-7.86,1
3.228,-7.61,-7.86,1
3.248,-7.49,-7.86,1
3.268,-7.49,-7.86,1
3.288,-7.61,-7.86,1
3.308,-7.49,-7.86,1
3.327,-7.49,-7.86,1
3.347,-7.49,-7.98,1
3.368,-7.37,-7.86,1
3.388,-7.37,-7.86,1
3.408,-7.49,-7.86,1
3.427,-7.37,-7.86,1
3.447,-7.49,-7.86,1
3.467,-7.37,-7.86,1
3.487,-7.49,-7.86,1
3.508,-7.49,-7.98,1
3.527,-7.49,-7.86,1
3.548,-7.49,-7.86,1
3.568,-7.49,-7.86,1
3.587,-7.49,-7.86,1
3.608,-7.49,-7.86,1
3.628,-7.49,-7.86,1
3.648,-7.49,-7.86,1
3.668,-7.49,-7.86,1
3.688,-7.49,-7.98,1
3.708,-7.49,-8.35,1
3.728,-7.49,-8.59,1
3.728,-7.49,-8.83,1
3.748,-7.49,-9.08,1
3.769,-7.49,-8.83,1
3.788,-7.49,-8.59,1
3.808,-7.49,-8.47,1
3.828,-7.49,-8.22,1
3.848,-7.49,-8.1,1
3.868,-7.61,-8.1,1
3.889,-7.49,-8.1,1
3.909,-7.61,-7.98,1
3.929,-7.61,-7.98,1
3.948,-7.49,-7.98,1
3.968,-7.49,-7.98,1
3.989,-7.49,-7.86,1
4.009,-7.49,-7.86,1
4.029,-7.49,-7.86,1
4.048,-7.61,-7.86,1
4.068,-7.49,-7.86,1
4.089,-7.61,-7.98,1
4.109,-7.61,-7.86,1
4.129,-7.49,-7.98,1
4.15,-7.61,-7.86,1
4.17,-7.49,-7.86,1
4.198,-7.49,-7.86,1
4.21,-7.49,-7.98,1
4.23,-7.49,-7.86,1
4.25,-7.49,-7.86,1
4.27,-7.49,-7.98,1
4.29,-7.61,-7.98,1
4.309,-7.49,-7.86,1
4.33,-7.61,-7.86,1
4.35,-7.61,-7.98,1
4.37,-7.61,-7.86,1
4.39,-7.49,-7.98,1
4.41,-7.49,-7.86,1
4.43,-7.49,-7.86,1
4.449,-7.49,-7.86,1
4.47,-7.49,-7.86,1
4.49,-7.49,-7.86,1
4.511,-7.49,-7.86,1
4.53,-7.61,-7.86,1
4.55,-7.49,-7.86,1
4.57,-7.61,-7.98,1
4.591,-7.49,-7.86,1
4.611,-7.49,-7.98,1
4.63,-7.0,-7.73,1
4.65,-6.27,-7.37,1
4.67,-5.78,-6.76,1
4.691,-5.41,-6.39,1
4.71,-5.17,-6.15,1
4.73,-4.92,-5.9,1
4.751,-4.68,-5.66,1
4.771,-4.44,-5.54,1
4.79,-4.44,-5.41,1
4.81,-4.31,-5.17,1
4.83,-4.31,-5.17,1
4.85,-4.19,-5.05,1
4.87,-4.19,-5.05,1
4.89,-4.31,-4.92,1
4.911,-4.19,-4.92,1
4.931,-4.07,-4.92,1
4.951,-3.95,-4.8,0
4.971,-3.95,-4.92,0
4.991,-3.82,-4.8,0
5.011,-3.82,-4.8,0
5.032,-3.82,-4.8,0
5.051,-3.95,-4.8,0
5.071,-3.95,-4.68,0
5.092,-3.82,-4.68,0
5.111,-3.82,-4.68,0
5.131,-3.95,-4.68,0
5.151,-3.82,-4.68,0
5.172,-3.82,-4.68,0
5.191,-3.82,-4.68,0
5.211,-3.95,-4.8,0
5.231,-3.95,-4.68,0
5.251,-3.82,-4.68,0
5.271,-3.7,-4.68,0
5.292,-3.7,-4.68,0
5.311,-3.82,-4.56,0
5.331,-3.82,-4.68,0
5.331,-3.7,-4.56,0
5.352,-3.82,-4.56,0
5.372,-3.95,-4.56,0
5.392,-3.7,-4.56,0
5.412,-3.82,-4.56,0
5.431,-3.82,-4.68,0
5.451,-3.82,-4.68,0
5.471,-3.82,-4.8,0
5.492,-3.7,-4.68,0
5.511,-3.7,-4.56,0
5.531,-3.7,-4.56,0
5.551,-3.7,-4.56,0
5.571,-3.7,-4.44,0
5.592,-3.58,-4.44,0
5.612,-3.58,-4.44,0
5.632,-3.58,-4.44,0
5.651,-3.7,-4.44,0
5.671,-3.82,-4.68,0
5.691,-5.05,-5.78,0
5.712,-6.02,-6.51,0
5.731,-6.51,-7.49,0
5.751,-6.88,-8.71,0
5.772,-7.73,-9.2,0
5.792,-8.59,-9.45,0
5.812,-9.2,-9.69,0
5.831,-9.45,-9.69,0
5.852,-9.57,-9.81,0
5.872,-9.69,-9.93,0
5.892,-9.81,-9.93,0
5.911,-9.93,-9.93,0
5.932,-9.93,-9.93,0
5.952,-10.06,-10.06,0
5.972,-9.93,-10.06,0
5.992,-10.06,-10.06,0
6.012,-9.93,-10.06,0
6.031,-10.06,-10.06,0
6.051,-10.06,-10.18,0
6.071,-10.18,-10.06,0
6.092,-10.18,-10.06,0
6.112,-10.18,-10.18,0
6.132,-10.06,-10.18,0
6.132,-10.06,-10.18,0
6.152,-10.06,-10.18,0
6.173,-10.18,-10.18,0
6.192,-10.18,-10.18,0
6.213,-10.18,-10.18,0
6.233,-10.18,-10.18,0
6.252,-10.18,-10.18,0
6.273,-10.06,-10.18,0
6.293,-10.06,-10.18,0
6.313,-10.06,-10.18,0
6.333,-10.18,-10.18,0
6.352,-10.18,-10.18,0
6.372,-10.3,-10.18,0
6.393,-10.3,-10.18,0
6.412,-10.3,-10.3,1
6.432,-10.18,-10.18,1
6.452,-10.18,-10.3,1
6.473,-10.18,-10.3,1
6.493,-10.3,-10.3,1
6.512,-10.18,-10.3,1
6.533,-10.18,-10.3,1
6.533,-10.3,-10.3,1
6.554,-10.18,-10.3,1
6.574,-10.3,-10.3,1
6.593,-10.3,-10.3,1
6.613,-10.3,-10.3,1
6.633,-10.3,-10.3,1
6.653,-10.3,-10.3,1
6.673,-9.81,-9.81,1
6.693,-9.08,-9.2,1
6.713,-8.59,-8.35,1
6.733,-8.22,-7.49,1
6.753,-7.49,-7.0,1
6.773,-6.76,-6.51,1
6.794,-6.27,-6.27,1
6.813,-5.9,-6.02,1
6.833,-5.29,-5.78,1
6.853,-5.05,-5.54,1
6.874,-4.8,-5.54,1
6.893,-4.68,-5.41,1
6.913,-4.68,-5.29,1
6.933,-4.56,-5.17,1
6.954,-4.68,-5.17,1
6.974,-4.68,-5.17,1
6.994,-4.31,-5.05,1
7.014,-4.07,-5.05,0
7.033,-3.95,-5.05,0
7.054,-3.95,-4.92,0
7.075,-4.07,-5.05,0
7.093,-4.07,-4.92,0
7.114,-4.19,-4.8,0
7.133,-4.19,-4.8,0
7.155,-4.07,-4.8,0
7.174,-3.95,-4.8,0
7.194,-3.95,-4.8,0
7.213,-3.95,-4.8,0
7.233,-3.95,-4.8,0
7.254,-3.95,-4.8,0
7.274,-4.19,-4.8,0
7.294,-4.19,-4.8,0
7.314,-3.95,-4.8,0
7.334,-3.82,-4.8,0
7.334,-3.82,-4.8,0
7.364,-3.82,-4.68,0
7.375,-3.95,-4.68,0
7.395,-3.95,-4.68,0
7.415,-4.07,-4.68,0
7.435,-4.07,-4.68,0
7.455,-3.95,-4.68,0
7.475,-3.82,-4.68,0
7.495,-3.95,-4.8,0
7.515,-3.95,-4.8,0
7.535,-3.82,-4.92,0
7.555,-3.82,-4.8,0
7.575,-3.82,-4.68,0
7.595,-3.82,-4.68,0
7.615,-3.82,-4.68,0
7.635,-3.7,-4.56,0
7.655,-3.7,-4.56,0
7.675,-3.7,-4.56,0
7.695,-3.7,-4.56,0
7.715,-3.7,-4.56,0
7.735,-4.19,-4.92,0
7.756,-5.41,-5.9,0
7.776,-6.27,-6.76,0
7.795,-6.76,-7.86,0
7.815,-7.12,-8.83,0
7.835,-7.98,-9.32,0
7.855,-8.83,-9.57,0
7.875,-9.32,-9.69,0
7.896,-9.57,-9.81,0
7.915,-9.57,-9.93,0
7.935,-9.81,-9.93,0
7.956,-9.93,-9.93,0
7.976,-9.93,-9.93,0
7.995,-10.06,-10.06,0
8.015,-10.06,-10.06,0
8.035,-10.06,-10.18,0
8.055,-10.06,-10.18,0
8.075,-9.93,-10.18,0
8.095,-10.18,-10.18,0
8.115,-10.3,-10.18,0
8.135,-10.18,-10.18,0
8.156,-10.18,-10.18,0
8.175,-10.18,-10.18,0
8.195,-10.18,-10.18,0
8.215,-10.18,-10.18,0
8.236,-10.18,-10.18,0
8.255,-10.3,-10.18,0
8.275,-10.3,-10.3,0
8.295,-10.3,-10.18,0
8.316,-10.18,-10.3,0
8.336,-10.18,-10.18,0
8.356,-10.18,-10.3,0
8.375,-10.18,-10.18,0
8.396,-10.18,-10.3,0
8.416,-10.3,-10.3,0
8.436,-10.3,-10.3,0
8.455,-10.3,-10.18,0
8.476,-10.3,-10.3,1
8.496,-10.3,-10.3,1
8.515,-10.18,-10.3,1
8.535,-10.18,-10.3,1
8.535,-10.18,-10.3,1
8.556,-10.18,-10.3,1
8.575,-10.3,-10.3,1
8.596,-10.18,-10.3,1
8.615,-10.3,-10.3,1
8.636,-10.18,-10.3,1
8.656,-10.3,-10.3,1
8.676,-10.3,-10.3,1
8.695,-10.3,-10.3,1
8.716,-10.3,-10.3,1
8.736,-10.18,-10.18,1
8.755,-9.57,-9.57,1
8.775,-8.96,-8.96,1
8.796,-8.47,-8.1,1
8.815,-7.98,-7.25,1
8.835,-7.25,-6.88,1
8.855,-6.51,-6.39,1
8.876,-6.15,-6.15,1
8.895,-5.54,-5.9,1
8.915,-5.17,-5.78,1
8.936,-4.92,-5.54,1
8.936,-4.8,-5.41,1
8.956,-4.68,-5.29,1
8.976,-4.68,-5.29,1
8.997,-4.68,-5.17,1
9.016,-4.68,-5.17,1
9.037,-4.56,-5.05,1
9.056,-4.19,-5.05,0
9.077,-4.07,-5.05,0
9.096,-4.07,-5.05,0
9.116,-3.95,-4.92,0
9.136,-4.07,-4.92,0
9.157,-4.19,-4.8,0
9.176,-4.19,-4.8,0
9.196,-4.19,-4.8,0
9.216,-4.07,-4.8,0
9.237,-3.95,-4.8,0
9.256,-3.95,-4.68,0
9.276,-3.95,-4.68,0
9.296,-3.95,-4.68,0
9.316,-4.07,-4.8,0
9.336,-4.19,-4.8,0
9.336,-4.19,-4.8,0
9.356,-3.82,-4.8,0
9.376,-3.82,-4.8,0
9.396,-3.82,-4.68,0
9.416,-3.82,-4.68,0
9.437,-3.82,-4.68,0
9.456,-3.95,-4.68,0
9.477,-3.95,-4.56,0
9.496,-4.07,-4.68,0
9.516,-3.82,-4.68,0
9.536,-3.82,-4.68,0
9.557,-3.82,-4.8,0
9.577,-3.82,-4.8,0
9.597,-3.82,-4.8,0
9.617,-3.82,-4.68,0
9.636,-3.82,-4.68,0
9.656,-3.82,-4.56,0
9.677,-3.7,-4.56,0
9.696,-3.58,-4.56,0
9.717,-3.58,-4.56,0
9.737,-3.58,-4.56,0
9.737,-3.7,-4.56,0
9.757,-4.19,-5.05,0
9.778,-5.54,-6.15,0
9.797,-6.27,-7.0,0
9.818,-6.88,-8.22,0
9.837,-7.37,-9.08,0
9.857,-8.35,-9.45,0
9.877,-9.08,-9.69,0
9.898,-9.45,-9.81,0
9.917,-9.57,-9.93,0
9.938,-9.69,-9.93,0
9.957,-9.93,-9.93,0
9.977,-9.93,-10.06,0
9.997,-10.06,-10.06,0
10.017,-10.06,-10.06,0
10.038,-10.06,-10.06,0
10.058,-10.06,-10.18,0
10.077,-10.06,-10.18,0
10.097,-10.18,-10.18,0
10.117,-10.3,-10.18,0
10.137,-10.3,-10.18,0
10.137,-10.3,-10.18,0
10.157,-10.18,-10.18,0
10.178,-10.18,-10.18,0
10.197,-10.18,-10.18,0
10.217,-10.3,-10.18,0
10.237,-10.18,-10.18,0
10.258,-10.18,-10.18,0
10.277,-10.18,-10.3,0
10.298,-10.18,-10.3,0
10.318,-10.06,-10.3,0
10.337,-10.06,-10.3,0
10.357,-10.18,-10.18,0
10.377,-10.3,-10.3,0
10.397,-10.3,-10.3,0
10.417,-10.18,-10.3,0
10.437,-10.3,-10.3,1
10.457,-10.18,-10.3,1
10.477,-10.18,-10.3,1
10.497,-10.18,-10.3,1
10.517,-10.3,-10.3,1
10.537,-10.3,-10.3,1
10.558,-10.3,-10.3,1
10.578,-10.18,-10.3,1
10.598,-10.3,-10.3,1
10.618,-10.3,-10.3,1
10.638,-10.3,-10.3,1
10.658,-10.3,-10.3,1
10.677,-10.3,-10.3,1
10.698,-10.3,-10.3,1
10.717,-9.93,-9.93,1
10.738,-9.32,-9.32,1
10.758,-8.71,-8.59,1
10.778,-8.22,-7.49,1
10.797,-7.61,-6.88,1
10.817,-6.76,-6.51,1
10.837,-6.27,-6.15,1
10.857,-5.78,-6.02,1
10.877,-5.17,-5.78,1
10.898,-4.92,-5.54,1
10.918,-4.8,-5.41,1
10.937,-4.68,-5.29,1
10.958,-4.56,-5.17,1
10.978,-4.56,-5.17,1
10.998,-4.68,-5.05,1
11.019,-4.56,-5.05,1
11.037,-4.19,-5.05,0
11.058,-4.07,-5.05,0
11.078,-3.95,-5.05,0
11.098,-3.95,-4.92,0
11.118,-4.07,-4.92,0
11.138,-4.07,-4.92,0
11.158,-4.19,-4.92,0
11.178,-4.19,-4.8,0
11.198,-3.95,-4.8,0
11.218,-3.95,-4.8,0
11.238,-3.95,-4.8,0
11.258,-3.95,-4.8,0
11.278,-3.95,-4.8,0
11.298,-4.07,-4.8,0
11.318,-4.19,-4.8,0
11.338,-3.95,-4.8,0
11.338,-3.7,-4.68,0
11.358,-3.7,-4.68,0
11.378,-3.82,-4.68,0
11.398,-3.82,-4.68,0
11.418,-3.95,-4.68,0
11.438,-4.07,-4.68,0
11.459,-4.07,-4.68,0
11.478,-3.95,-4.68,0
11.498,-3.82,-4.68,0
11.519,-3.82,-4.8,0
11.538,-3.82,-4.8,0
11.558,-3.82,-4.68,0
11.579,-3.82,-4.68,0
11.599,-3.95,-4.56,0
11.619,-3.82,-4.56,0
11.639,-3.7,-4.44,0
11.658,-3.7,-4.56,0
11.678,-3.7,-4.56,0
11.698,-3.7,-4.56,0
11.719,-3.82,-4.56,0
11.738,-4.68,-5.41,0
11.738,-5.9,-6.39,0
11.759,-6.63,-7.25,0
11.779,-7.0,-8.47,0
11.799,-7.61,-9.2,0
11.819,-8.59,-9.57,0
11.839,-9.2,-9.69,0
11.859,-9.45,-9.93,0
11.879,-9.57,-9.93,0
11.899,-9.81,-9.93,0
11.919,-9.93,-10.06,0
11.939,-10.06,-10.06,0
11.959,-10.06,-10.06,0
11.979,-10.06,-10.06,0
11.999,-10.06,-10.18,0
12.019,-9.93,-10.18,0
12.04,-10.06,-10.18,0
12.059,-10.18,-10.18,0
12.079,-10.18,-10.18,0
12.099,-10.3,-10.18,0
12.119,-10.18,-10.18,0
12.138,-10.18,-10.18,0
12.138,-10.06,-10.18,0
12.159,-10.18,-10.18,0
12.179,-10.18,-10.18,0
12.199,-10.18,-10.18,0
12.219,-10.18,-10.18,0
12.239,-10.18,-10.18,0
12.259,-10.18,-10.18,0
12.279,-10.18,-10.3,0
12.299,-10.18,-10.18,0
12.319,-10.18,-10.18,0
12.339,-10.3,-10.18,0
12.359,-10.3,-10.3,0
12.379,-10.3,-10.18,0
12.399,-10.3,-10.18,1
12.419,-10.18,-10.3,1
12.439,-10.18,-10.18,1
12.459,-10.18,-10.3,1
12.479,-10.3,-10.18,1
12.499,-10.3,-10.3,1
12.519,-10.3,-10.3,1
12.539,-10.3,-10.3,1
12.539,-10.3,-10.3,1
12.56,-10.3,-10.3,1
12.579,-10.3,-10.3,1
12.599,-10.42,-10.3,1
12.62,-10.3,-10.3,1
12.639,-10.3,-10.18,1
12.659,-9.69,-9.69,1
12.679,-9.08,-9.08,1
12.699,-8.59,-8.22,1
12.719,-8.1,-7.37,1
12.739,-7.37,-6.76,1
12.76,-6.63,-6.39,1
12.779,-6.15,-6.15,1
12.799,-5.54,-5.9,1
12.819,-5.05,-5.66,1
12.84,-4.8,-5.54,1
12.859,-4.68,-5.41,1
12.88,-4.68,-5.29,1
12.899,-4.56,-5.17,1
12.919,-4.68,-5.17,1
12.939,-4.68,-5.17,1
12.939,-4.31,-5.05,1
12.959,-4.07,-5.05,0
12.979,-4.07,-4.92,0
13.0,-3.95,-4.92,0
13.02,-3.95,-4.92,0
13.04,-4.19,-4.92,0
13.06,-4.19,-4.8,0
13.08,-4.07,-4.8,0
13.1,-3.95,-4.8,0
13.119,-3.95,-4.8,0
13.14,-3.82,-4.8,0
13.16,-3.95,-4.8,0
13.18,-3.95,-4.8,0
13.2,-4.07,-4.8,0
13.219,-4.19,-4.8,0
13.239,-4.07,-4.8,0
13.26,-3.82,-4.8,0
13.28,-3.82,-4.8,0
13.299,-3.82,-4.68,0
13.32,-3.82,-4.68,0
13.34,-3.95,-4.68,0
13.34,-4.07,-4.68,0
13.36,-4.19,-4.68,0
13.381,-3.95,-4.68,0
13.4,-3.95,-4.8,0
13.42,-3.95,-4.8,0
13.441,-3.82,-4.8,0
13.46,-3.82,-4.8,0
13.48,-3.95,-4.68,0
13.5,-3.82,-4.68,0
13.52,-3.95,-4.56,0
13.54,-3.82,-4.56,0
13.56,-3.7,-4.56,0
13.58,-3.7,-4.56,0
13.6,-3.7,-4.56,0
13.62,-3.7,-4.56,0
13.64,-3.95,-4.68,0
13.66,-5.17,-5.78,0
13.681,-6.15,-6.63,0
13.7,-6.76,-7.61,0
13.72,-7.12,-8.71,0
13.74,-7.86,-9.32,0
13.761,-8.83,-9.57,0
13.781,-9.32,-9.81,0
13.8,-9.57,-9.81,0
13.821,-9.69,-9.93,0
13.841,-9.81,-9.93,0
13.861,-9.93,-10.06,0
13.881,-9.93,-10.06,0
13.901,-10.06,-10.06,0
13.92,-10.06,-10.06,0
13.941,-10.06,-10.18,0
13.961,-10.06,-10.18,0
13.98,-10.06,-10.18,0
14.001,-10.18,-10.18,0
14.02,-10.18,-10.18,0
14.041,-10.3,-10.18,0
14.061,-10.18,-10.18,0
14.081,-10.18,-10.18,0
14.1,-10.18,-10.18,0
14.121,-10.18,-10.18,0
14.141,-10.3,-10.3,0
14.162,-10.3,-10.3,0
14.182,-10.18,-10.18,0
14.202,-10.18,-10.3,0
14.221,-10.18,-10.3,0
14.241,-10.18,-10.3,0
14.267,-10.18,-10.18,0
14.282,-10.3,-10.3,0
14.302,-10.3,-10.18,0
14.321,-10.3,-10.3,0
14.341,-10.3,-10.3,0
14.361,-10.3,-10.18,1
14.382,-10.18,-10.3,1
14.401,-10.18,-10.3,1
14.421,-10.18,-10.3,1
14.441,-10.3,-10.3,1
14.461,-10.3,-10.3,1
14.482,-10.18,-10.3,1
14.501,-10.3,-10.3,1
14.521,-10.3,-10.3,1
14.541,-10.3,-10.3,1
14.562,-10.3,-10.3,1
14.581,-10.3,-10.3,1
14.602,-10.3,-10.3,1
14.621,-10.18,-10.06,1
14.641,-9.45,-9.57,1
14.661,-8.96,-8.83,1
14.681,-8.35,-7.86,1
14.702,-7.86,-7.12,1
14.722,-7.0,-6.63,1
14.742,-6.39,-6.27,1
14.762,-5.9,-6.02,1
14.781,-5.41,-5.78,1
14.802,-4.92,-5.66,1
14.821,-4.8,-5.54,1
14.842,-4.68,-5.29,1
14.861,-4.68,-5.29,1
14.881,-4.68,-5.17,1
14.901,-4.68,-5.17,1
14.922,-4.56,-5.05,1
14.942,-4.31,-5.05,0
14.962,-4.07,-5.05,0
14.982,-3.95,-4.92,0
15.002,-3.95,-4.92,0
15.022,-3.95,-4.92,0
15.042,-4.19,-4.92,0
15.062,-4.19,-4.92,0
15.082,-4.19,-4.8,0
15.102,-4.07,-4.8,0
15.122,-4.07,-4.8,0
15.142,-4.07,-4.8,0
15.162,-4.07,-4.8,0
15.182,-4.07,-4.8,0
15.202,-4.19,-4.8,0
15.222,-4.19,-4.8,0
15.242,-4.07,-4.8,0
15.262,-3.82,-4.8,0
15.282,-3.82,-4.68,0
15.302,-3.82,-4.68,0
15.322,-3.95,-4.68,0
15.342,-3.95,-4.68,0
15.342,-4.07,-4.68,0
15.362,-3.95,-4.68,0
15.382,-3.95,-4.68,0
15.403,-3.95,-4.8,0
15.423,-3.82,-4.8,0
15.442,-3.82,-4.8,0
15.463,-3.82,-4.8,0
15.482,-3.82,-4.68,0
15.502,-3.82,-4.68,0
15.522,-3.82,-4.68,0
15.543,-3.7,-4.56,0
15.562,-3.7,-4.56,0
15.583,-3.7,-4.56,0
15.602,-3.7,-4.56,0
15.623,-3.7,-4.56,0
15.642,-4.31,-5.17,0
15.662,-5.54,-6.27,0
15.683,-6.39,-7.0,0
15.703,-6.76,-8.22,0
15.722,-7.37,-9.08,0
15.742,-8.22,-9.45,0
15.763,-9.08,-9.69,0
15.783,-9.45,-9.81,0
15.803,-9.57,-9.93,0
15.823,-9.81,-9.93,0
15.85,-9.93,-10.06,0
15.863,-10.06,-10.06,0
15.883,-10.06,-10.06,0
15.903,-10.06,-10.18,0
15.923,-10.06,-10.18,0
15.943,-10.06,-10.18,0
15.962,-10.18,-10.18,0
15.983,-10.18,-10.18,0
16.003,-10.3,-10.18,0
16.023,-10.3,-10.18,0
16.043,-10.3,-10.18,0
16.062,-10.3,-10.18,0
16.083,-10.18,-10.18,0
16.103,-10.18,-10.18,0
16.123,-10.3,-10.18,0
16.142,-10.3,-10.18,0
16.163,-10.3,-10.3,0
16.182,-10.3,-10.3,0
16.203,-10.3,-10.3,0
16.223,-10.18,-10.3,0
16.243,-10.18,-10.18,0
16.263,-10.3,-10.18,0
16.283,-10.3,-10.3,0
16.303,-10.3,-10.3,0
16.323,-10.3,-10.3,0
16.343,-10.3,-10.3,1
16.363,-10.3,-10.3,1
16.383,-10.3,-10.3,1
16.403,-10.18,-10.3,1
16.423,-10.3,-10.3,1
16.443,-10.3,-10.3,1
16.463,-10.3,-10.3,1
16.483,-10.3,-10.3,1
16.503,-10.3,-10.3,1
16.524,-10.3,-10.3,1
16.543,-10.3,-10.3,1
16.564,-10.3,-10.3,1
16.583,-10.3,-10.3,1
16.604,-10.42,-10.3,1
16.624,-9.81,-9.81,1
16.643,-9.2,-9.2,1
16.664,-8.71,-8.47,1
16.683,-8.22,-7.49,1
16.704,-7.49,-6.88,1
16.724,-6.76,-6.51,1
16.744,-6.15,-6.15,1
16.764,-5.66,-6.02,1
16.784,-5.29,-5.78,1
16.803,-5.05,-5.54,1
16.824,-4.8,-5.41,1
16.844,-4.68,-5.29,1
16.864,-4.56,-5.29,1
16.883,-4.68,-5.17,1
16.904,-4.68,-5.05,1
16.924,-4.44,-5.05,1
16.944,-4.19,-5.05,0
16.944,-4.07,-5.05,0
16.964,-3.95,-5.05,0
16.985,-3.95,-5.05,0
17.005,-4.07,-4.92,0
17.025,-4.19,-4.92,0
17.045,-4.19,-4.8,0
17.065,-4.07,-4.8,0
17.085,-3.95,-4.8,0
17.105,-3.95,-4.8,0
17.125,-3.95,-4.8,0
17.145,-3.95,-4.8,0
17.165,-4.07,-4.8,0
17.185,-4.07,-4.8,0
17.205,-3.95,-4.8,0
17.226,-3.95,-4.8,0
17.245,-3.82,-4.68,0
17.265,-3.82,-4.68,0
17.284,-3.82,-4.68,0
17.305,-3.82,-4.68,0
17.324,-3.95,-4.68,0
17.345,-4.07,-4.68,0
17.365,-3.95,-4.68,0
17.385,-3.95,-4.68,0
17.406,-3.82,-4.68,0
17.425,-3.82,-4.8,0
17.445,-3.82,-4.68,0
17.465,-3.7,-4.68,0
17.486,-3.82,-4.68,0
17.506,-3.7,-4.56,0
17.526,-3.7,-4.56,0
17.545,-3.7,-4.56,0
17.565,-3.7,-4.56,0
17.586,-3.7,-4.56,0
17.605,-3.7,-4.56,0
17.625,-3.82,-4.68,0
17.645,-4.8,-5.54,0
17.665,-5.9,-6.51,0
17.686,-6.63,-7.37,0
17.705,-7.12,-8.59,0
17.725,-7.73,-9.32,0
17.745,-8.71,-9.57,0
17.745,-9.2,-9.69,0
17.766,-9.57,-9.93,0
17.786,-9.81,-9.93,0
17.806,-9.93,-10.06,0
17.826,-9.93,-10.06,0
17.846,-10.06,-10.06,0
17.866,-10.06,-10.06,0
17.885,-10.06,-10.18,0
17.906,-10.06,-10.18,0
17.926,-10.06,-10.18,0
17.946,-10.18,-10.18,0
17.966,-10.3,-10.18,0
17.985,-10.3,-10.18,0
18.006,-10.3,-10.18,0
18.026,-10.18,-10.18,0
18.045,-10.18,-10.18,0
18.066,-10.18,-10.18,0
18.086,-10.18,-10.18,0
18.106,-10.3,-10.18,0
18.126,-10.3,-10.18,0
18.147,-10.3,-10.3,0
18.147,-10.18,-10.3,0
18.167,-10.18,-10.3,0
18.187,-10.18,-10.3,0
18.207,-10.18,-10.3,0
18.227,-10.3,-10.3,0
18.247,-10.3,-10.18,0
18.267,-10.3,-10.3,0
18.288,-10.3,-10.3,0
18.308,-10.3,-10.3,1
18.328,-10.3,-10.3,1
18.347,-10.3,-10.3,1
18.367,-10.3,-10.3,1
18.387,-10.3,-10.3,1
18.408,-10.3,-10.3,1
18.427,-10.3,-10.3,1
18.448,-10.3,-10.3,1
18.468,-10.3,-10.3,1
18.487,-10.3,-10.3,1
18.507,-10.3,-10.3,1
18.527,-10.42,-10.3,1
18.547,-10.3,-10.3,1
18.547,-10.18,-10.18,1
18.568,-9.57,-9.57,1
18.588,-8.96,-8.96,1
18.608,-8.47,-7.98,1
18.628,-7.98,-7.12,1
18.648,-7.12,-6.76,1
18.668,-6.51,-6.27,1
18.688,-5.9,-6.02,1
18.709,-5.54,-5.78,1
18.727,-5.17,-5.66,1
18.748,-4.92,-5.54,1
18.767,-4.8,-5.29,1
18.788,-4.68,-5.29,1
18.808,-4.68,-5.17,1
18.828,-4.68,-5.05,1
18.848,-4.44,-5.17,1
18.868,-4.44,-5.05,1
18.887,-4.19,-5.05,0
18.907,-3.95,-5.05,0
18.928,-3.95,-4.92,0
18.948,-3.95,-4.92,0
18.968,-4.07,-4.92,0
18.989,-4.19,-4.92,0
19.008,-4.07,-4.8,0
19.028,-4.07,-4.8,0
19.048,-3.95,-4.68,0
19.068,-3.95,-4.8,0
19.089,-3.95,-4.68,0
19.108,-3.95,-4.8,0
19.128,-4.07,-4.8,0
19.148,-4.07,-4.8,0
19.168,-3.95,-4.8,0
19.188,-3.95,-4.8,0
19.208,-3.82,-4.8,0
19.228,-3.82,-4.8,0
19.248,-3.82,-4.68,0
19.268,-3.95,-4.68,0
19.288,-4.07,-4.68,0
19.308,-3.95,-4.68,0
19.329,-3.95,-4.68,0
19.348,-3.95,-4.68,0
19.348,-3.82,-4.8,0
19.369,-3.82,-4.8,0
19.389,-3.82,-4.8,0
19.408,-3.82,-4.8,0
19.428,-3.95,-4.68,0
19.449,-3.82,-4.68,0
19.468,-3.82,-4.56,0
19.489,-3.82,-4.56,0
19.509,-3.7,-4.56,0
19.529,-3.7,-4.56,0
19.548,-3.82,-4.56,0
19.568,-4.07,-4.92,0
19.588,-5.41,-6.02,0
19.609,-6.27,-6.88,0
19.628,-6.88,-7.98,0
19.648,-7.37,-8.96,0
19.668,-8.1,-9.32,0
19.689,-8.96,-9.57,0
19.709,-9.45,-9.81,0
19.728,-9.57,-9.81,0
19.749,-9.81,-9.93,0
19.769,-9.93,-9.93,0
19.79,-9.93,-9.93,0
19.81,-9.93,-10.06,0
19.83,-10.06,-10.06,0
19.85,-10.06,-10.06,0
19.87,-10.06,-10.18,0
19.889,-10.06,-10.18,0
19.909,-10.18,-10.18,0
19.93,-10.3,-10.18,0
19.949,-10.3,-10.18,0
19.969,-10.3,-10.18,0
19.989,-10.18,-10.18,0
20.01,-10.18,-10.18,0
20.029,-10.18,-10.18,0
20.05,-10.18,-10.18,0
20.07,-10.3,-10.18,0
20.09,-10.18,-10.3,0
20.11,-10.18,-10.3,0
20.129,-10.18,-10.3,0
20.15,-10.18,-10.3,0
20.15,-10.18,-10.3,0
20.17,-10.18,-10.18,0
20.19,-10.3,-10.3,0
20.21,-10.3,-10.18,0
20.23,-10.3,-10.3,0
20.25,-10.3,-10.3,0
20.271,-10.3,-10.3,1
20.29,-10.3,-10.3,1
20.31,-10.3,-10.3,1
20.33,-10.3,-10.3,1
20.35,-10.3,-10.3,1
20.37,-10.3,-10.3,1
20.39,-10.18,-10.3,1
20.41,-10.3,-10.3,1
20.43,-10.3,-10.3,1
20.45,-10.3,-10.3,1
20.47,-10.3,-10.3,1
20.49,-10.3,-10.3,1
20.51,-10.3,-10.3,1
20.53,-10.06,-10.06,1
20.55,-9.32,-9.45,1
20.571,-8.83,-8.71,1
20.591,-8.35,-7.73,1
20.612,-7.73,-7.0,1
20.631,-7.0,-6.51,1
20.651,-6.27,-6.27,1
20.671,-5.66,-6.02,1
20.69,-5.29,-5.78,1
20.71,-5.05,-5.66,1
20.731,-4.8,-5.41,1
20.751,-4.68,-5.41,1
20.771,-4.68,-5.29,1
20.79,-4.68,-5.17,1
20.811,-4.56,-5.17,1
20.831,-4.44,-5.05,1
20.851,-4.31,-5.05,0
20.871,-4.19,-5.05,0
20.891,-3.95,-5.05,0
20.911,-3.95,-5.05,0
20.931,-4.07,-4.92,0
20.951,-4.19,-4.92,0
20.951,-4.07,-4.92,0
20.971,-4.07,-4.8,0
20.991,-4.07,-4.68,0
21.012,-3.95,-4.8,0
21.032,-3.95,-4.68,0
21.051,-3.95,-4.8,0
21.071,-4.07,-4.8,0
21.091,-4.07,-4.8,0
21.111,-3.95,-4.8,0
21.131,-3.95,-4.8,0
21.151,-3.95,-4.68,0
21.171,-3.95,-4.68,0
21.191,-3.82,-4.68,0
21.211,-3.95,-4.68,0
21.232,-3.95,-4.68,0
21.252,-3.95,-4.56,0
21.272,-3.95,-4.68,0
21.292,-4.07,-4.68,0
21.312,-4.07,-4.68,0
21.331,-4.07,-4.68,0
21.351,-3.82,-4.8,0
21.372,-3.82,-4.68,0
21.392,-3.82,-4.68,0
21.412,-3.82,-4.68,0
21.433,-3.82,-4.56,0
21.451,-3.7,-4.56,0
21.472,-3.7,-4.56,0
21.491,-3.7,-4.56,0
21.512,-3.7,-4.56,0
21.532,-3.82,-4.68,0
21.551,-4.56,-5.41,0
21.572,-5.66,-6.39,0
21.591,-6.51,-7.12,0
21.611,-7.0,-8.35,0
21.632,-7.49,-9.2,0
21.651,-8.47,-9.57,0
21.672,-9.08,-9.81,0
21.692,-9.45,-9.81,0
21.712,-9.69,-9.93,0
21.731,-9.81,-10.06,0
21.752,-9.93,-10.06,0
21.752,-10.06,-10.06,0
21.773,-10.06,-10.06,0
21.792,-10.06,-10.06,0
21.812,-10.06,-10.18,0
21.832,-10.06,-10.18,0
21.853,-10.18,-10.18,0
21.872,-10.18,-10.18,0
21.892,-10.18,-10.18,0
21.913,-10.18,-10.18,0
21.933,-10.18,-10.18,0
21.952,-10.18,-10.18,0
21.972,-10.3,-10.18,0
21.992,-10.18,-10.18,0
22.012,-10.18,-10.18,0
22.033,-10.3,-10.18,0
22.052,-10.3,-10.3,0
22.072,-10.3,-10.3,0
22.092,-10.3,-10.3,0
22.112,-10.18,-10.3,0
22.132,-10.18,-10.18,0
22.153,-10.3,-10.3,0
22.173,-10.3,-10.3,0
22.193,-10.18,-10.3,0
22.213,-10.3,-10.3,0
22.233,-10.3,-10.3,1
22.253,-10.3,-10.3,1
22.273,-10.3,-10.3,1
22.294,-10.18,-10.3,1
22.313,-10.3,-10.3,1
22.333,-10.3,-10.3,1
22.353,-10.3,-10.3,1
22.373,-10.3,-10.3,1
22.393,-10.3,-10.3,1
22.413,-10.3,-10.3,1
22.433,-10.3,-10.3,1
22.453,-10.3,-10.3,1
22.473,-10.42,-10.3,1
22.493,-10.3,-10.3,1
22.514,-9.69,-9.69,1
22.533,-9.08,-9.08,1
22.553,-8.59,-8.22,1
22.553,-8.1,-7.37,1
22.573,-7.37,-6.76,1
22.593,-6.51,-6.51,1
22.614,-5.9,-6.15,1
22.633,-5.54,-5.9,1
22.654,-5.29,-5.66,1
22.674,-4.92,-5.54,1
22.694,-4.8,-5.41,1
22.713,-4.68,-5.29,1
22.733,-4.68,-5.17,1
22.753,-4.68,-5.17,1
22.773,-4.56,-5.05,1
22.793,-4.44,-5.05,1
22.814,-4.31,-5.05,0
22.833,-4.07,-4.92,0
22.853,-3.95,-5.05,0
22.874,-4.07,-5.05,0
22.893,-4.19,-4.92,0
22.914,-4.19,-4.92,0
22.933,-4.07,-4.92,0
22.954,-4.07,-4.8,0
22.974,-4.07,-4.8,0
22.994,-3.95,-4.8,0
23.014,-3.95,-4.8,0
23.035,-4.07,-4.8,0
23.054,-4.07,-4.8,0
23.074,-4.19,-4.8,0
23.094,-3.95,-4.8,0
23.114,-3.95,-4.8,0
23.135,-3.95,-4.8,0
23.154,-3.82,-4.8,0
23.175,-3.82,-4.68,0
23.194,-3.95,-4.68,0
23.214,-3.95,-4.68,0
23.235,-3.95,-4.68,0
23.254,-3.95,-4.68,0
23.275,-3.95,-4.68,0
23.295,-3.95,-4.8,0
23.314,-3.82,-4.8,0
23.335,-3.82,-4.8,0
23.354,-3.82,-4.8,0
23.354,-3.82,-4.68,0
23.375,-3.82,-4.56,0
23.394,-3.82,-4.56,0
23.414,-3.7,-4.56,0
23.435,-3.7,-4.56,0
23.455,-3.7,-4.56,0
23.474,-3.7,-4.56,0
23.494,-3.95,-4.68,0
23.514,-5.05,-5.78,0
23.535,-6.02,-6.63,0
23.554,-6.63,-7.61,0
23.575,-7.12,-8.71,0
23.594,-7.86,-9.32,0
23.614,-8.83,-9.57,0
23.634,-9.32,-9.81,0
23.655,-9.57,-9.93,0
23.675,-9.81,-9.93,0
23.695,-9.93,-10.06,0
23.714,-10.06,-10.06,0
23.735,-10.06,-10.06,0
23.755,-10.06,-10.18,0
23.775,-10.06,-10.18,0
23.796,-10.06,-10.18,0
23.815,-10.18,-10.18,0
23.836,-10.18,-10.18,0
23.855,-10.18,-10.3,0
23.876,-10.3,-10.18,0
23.896,-10.3,-10.18,0
23.915,-10.18,-10.18,0
23.936,-10.18,-10.18,0
23.956,-10.18,-10.18,0
23.976,-10.3,-10.18,0
23.995,-10.3,-10.18,0
24.016,-10.3,-10.3,0
24.035,-10.3,-10.3,0
24.055,-10.18,-10.18,0
24.075,-10.3,-10.18,0
24.096,-10.3,-10.3,0
24.115,-10.3,-10.18,0
24.135,-10.3,-10.18,0
24.156,-10.3,-10.3,0
24.156,-10.3,-10.3,0
24.177,-10.18,-10.3,0
24.197,-10.3,-10.3,1
24.217,-10.3,-10.3,1
24.237,-10.18,-10.3,1
24.256,-10.3,-10.3,1
24.276,-10.3,-10.3,1
24.297,-10.3,-10.3,1
24.317,-10.3,-10.3,1
24.336,-10.3,-10.3,1
24.357,-10.3,-10.3,1
24.376,-10.3,-10.3,1
24.396,-10.3,-10.42,1
24.416,-10.3,-10.3,1
24.436,-10.42,-10.3,1
24.457,-10.06,-10.06,1
24.477,-9.45,-9.45,1
24.497,-8.83,-8.71,1
24.517,-8.35,-7.73,1
24.537,-7.73,-7.12,1
24.556,-6.88,-6.63,1
24.577,-6.27,-6.27,1
24.597,-5.78,-6.02,1
24.617,-5.29,-5.9,1
24.637,-5.17,-5.66,1
24.657,-4.92,-5.54,1
24.677,-4.68,-5.41,1
24.697,-4.68,-5.29,1
24.717,-4.68,-5.17,1
24.737,-4.8,-5.17,1
24.757,-4.44,-5.05,1
24.777,-4.31,-5.05,0
24.797,-4.19,-5.05,0
24.817,-3.95,-5.05,0
24.837,-3.95,-5.05,0
24.865,-4.07,-4.92,0
24.877,-4.19,-4.92,0
24.897,-4.19,-4.92,0
24.917,-4.07,-4.8,0
24.937,-4.07,-4.8,0
24.957,-3.95,-4.8,0
24.957,-3.95,-4.8,0
24.978,-3.95,-4.8,0
24.998,-4.07,-4.8,0
25.018,-4.19,-4.8,0
25.038,-4.07,-4.8,0
25.058,-3.95,-4.8,0
25.078,-3.95,-4.8,0
25.098,-3.82,-4.68,0
25.118,-3.82,-4.68,0
25.138,-3.82,-4.68,0
25.158,-3.95,-4.68,0
25.178,-3.95,-4.68,0
25.198,-3.95,-4.68,0
25.218,-3.95,-4.8,0
25.238,-3.95,-4.8,0
25.258,-3.95,-4.8,0
25.278,-3.82,-4.8,0
25.298,-3.82,-4.8,0
25.318,-3.7,-4.68,0
25.338,-3.82,-4.68,0
25.358,-3.7,-4.68,0
25.379,-3.7,-4.56,0
25.4,-3.7,-4.56,0
25.419,-3.7,-4.56,0
25.438,-3.7,-4.56,0
25.459,-3.82,-4.68,0
25.479,-4.44,-5.17,0
25.498,-5.66,-6.27,0
25.518,-6.51,-7.0,0
25.538,-7.0,-8.35,0
25.558,-7.49,-9.08,0
25.578,-8.47,-9.45,0
25.598,-9.08,-9.69,0
25.618,-9.57,-9.81,0
25.638,-9.69,-9.93,0
25.658,-9.93,-9.93,0
25.678,-9.93,-10.06,0
25.698,-9.93,-10.06,0
25.718,-10.06,-10.06,0
25.738,-10.06,-10.06,0
25.758,-10.06,-10.18,0
25.778,-10.18,-10.18,0
25.798,-10.18,-10.18,0
25.818,-10.18,-10.18,0
25.838,-10.3,-10.18,0
25.858,-10.18,-10.3,0
25.878,-10.3,-10.18,0
25.898,-10.18,-10.18,0
25.919,-10.3,-10.18,0
25.938,-10.18,-10.18,0
25.958,-10.3,-10.18,0
25.978,-10.3,-10.3,0
25.999,-10.3,-10.3,0
26.018,-10.18,-10.3,0
26.038,-10.18,-10.3,0
26.058,-10.18,-10.3,0
26.078,-10.3,-10.3,0
26.098,-10.3,-10.3,0
26.118,-10.3,-10.3,0
26.138,-10.3,-10.3,0
26.158,-10.3,-10.18,0
26.158,-10.3,-10.3,1
26.179,-10.3,-10.3,1
26.198,-10.3,-10.3,1
26.218,-10.3,-10.3,1
26.239,-10.3,-10.3,1
26.259,-10.3,-10.3,1
26.279,-10.3,-10.3,1
26.299,-10.3,-10.3,1
26.319,-10.3,-10.3,1
26.339,-10.3,-10.3,1
26.358,-10.3,-10.3,1
26.379,-10.42,-10.3,1
26.399,-10.42,-10.3,1
26.419,-10.3,-10.42,1
26.439,-9.81,-9.81,1
26.459,-9.2,-9.2,1
26.479,-8.71,-8.47,1
26.499,-8.22,-7.49,1
26.519,-7.49,-6.88,1
26.539,-6.76,-6.51,1
26.559,-6.15,-6.27,1
26.559,-5.78,-6.02,1
26.579,-5.41,-5.78,1
26.599,-5.05,-5.54,1
26.619,-4.8,-5.41,1
26.64,-4.68,-5.29,1
26.66,-4.56,-5.29,1
26.679,-4.56,-5.17,1
26.7,-4.68,-5.17,1
26.72,-4.56,-5.05,1
26.74,-4.31,-5.05,0
26.76,-4.19,-5.05,0
26.779,-3.95,-5.05,0
26.799,-3.95,-5.05,0
26.82,-3.95,-4.92,0
26.84,-4.19,-4.92,0
26.86,-4.19,-4.8,0
26.879,-4.07,-4.8,0
26.9,-4.07,-4.8,0
26.919,-4.07,-4.8,0
26.94,-3.95,-4.8,0
26.959,-3.95,-4.8,0
26.979,-3.95,-4.8,0
26.999,-4.07,-4.8,0
27.019,-4.07,-4.8,0
27.039,-3.95,-4.8,0
27.06,-3.95,-4.8,0
27.079,-3.82,-4.68,0
27.099,-3.82,-4.68,0
27.12,-3.82,-4.68,0
27.14,-3.82,-4.68,0
27.16,-4.07,-4.68,0
27.18,-4.07,-4.68,0
27.2,-3.95,-4.68,0
27.22,-3.95,-4.8,0
27.239,-3.82,-4.8,0
27.259,-3.82,-4.8,0
27.28,-3.82,-4.8,0
27.3,-3.82,-4.68,0
27.32,-4.07,-4.68,0
27.34,-3.82,-4.56,0
27.36,-3.82,-4.68,0
27.36,-3.82,-4.56,0
27.381,-3.7,-4.68,0
27.4,-3.7,-4.68,0
27.42,-3.82,-4.68,0
27.44,-4.92,-5.66,0
27.46,-6.02,-6.63,0
27.48,-6.63,-7.49,0
27.5,-7.12,-8.71,0
27.52,-7.86,-9.32,0
27.54,-8.83,-9.57,0
27.56,-9.32,-9.81,0
27.58,-9.57,-9.93,0
27.6,-9.81,-9.93,0
27.62,-9.93,-10.06,0
27.64,-10.06,-10.06,0
27.66,-10.06,-10.06,0
27.68,-10.06,-10.06,0
27.7,-10.06,-10.18,0
27.72,-10.18,-10.18,0
27.74,-10.06,-10.18,0
27.76,-10.18,-10.18,0
27.76,-10.18,-10.18,0
27.78,-10.3,-10.18,0
27.8,-10.3,-10.18,0
27.821,-10.18,-10.18,0
27.841,-10.3,-10.18,0
27.86,-10.18,-10.18,0
27.881,-10.3,-10.18,0
27.9,-10.3,-10.18,0
27.921,-10.3,-10.18,0
27.941,-10.18,-10.18,0
27.962,-10.18,-10.3,0
27.982,,,
28.001,-10.18,-10.3,0
28.02,-10.18,-10.3,0
28.04,-10.18,-10.3,0
28.06,-10.3,-10.3,0
28.081,-10.3,-10.3,0
28.104,-10.3,-10.3,0
28.129,-10.3,-10.3,0
28.15,,,
28.161,-10.3,-10.18,1
28.182,-10.3,-10.3,1
28.201,-10.3,-10.3,1
28.224,-10.3,-10.3,1
28.249,-10.3,-10.3,1
28.274,-10.3,-10.3,1
28.297,-10.3,-10.3,1
28.318,,,
28.322,,,
28.342,-10.3,-10.3,1
28.361,-10.3,-10.3,1
28.381,-10.3,-10.3,1
28.401,-10.3,-10.3,1
28.422,-10.3,-10.3,1
28.442,-10.3,-10.3,1
28.461,,,
28.482,-10.18,-10.18,1
28.502,-9.45,-9.45,1
28.522,-8.96,-8.83,1
28.542,-8.47,-7.86,1
28.562,-7.98,-7.12,1
28.576,-7.0,-6.76,1
28.596,-6.39,-6.39,1
28.617,,,
28.637,-6.02,-6.15,1
28.656,-5.54,-5.9,1
28.676,-5.17,-5.66,1
28.697,-4.92,-5.54,1
28.716,-4.68,-5.41,1
28.737,-4.68,-5.29,1
28.757,-4.56,-5.17,1
28.777,-4.56,-5.17,1
28.797,-4.68,-5.17,1
28.816,,,
28.837,-4.31,-5.05,0
28.857,-4.19,-5.05,0
28.877,-4.07,-5.05,0
28.897,-3.95,-4.92,0
28.916,-3.95,-5.05,0
28.937,-4.07,-4.92,0
28.957,-4.19,-4.8,0
28.977,-4.19,-4.92,0
28.99,-4.07,-4.8,0
29.01,,,
29.031,-4.07,-4.8,0
29.051,-3.95,-4.8,0
29.071,-3.95,-4.8,0
29.09,-3.95,-4.8,0
29.11,-4.07,-4.92,0
29.132,-4.19,-4.92,0
29.151,-3.95,-4.92,0
29.171,-3.95,-4.8,0
29.191,-3.95,-4.8,0
29.211,-3.82,-4.8,0
29.232,-3.82,-4.68,0
29.252,-3.95,-4.68,0
29.277,-4.07,-4.68,0
29.297,-4.07,-4.68,0
29.317,-3.95,-4.68,0
29.342,-4.07,-4.8,0
29.362,-4.07,-4.8,0
29.383,,,
29.39,-3.82,-4.8,0
29.411,-3.82,-4.8,0
29.431,-3.82,-4.68,0
29.451,,,
29.471,-3.95,-4.68,0
29.491,-3.95,-4.56,0
29.511,-3.82,-4.56,0
29.531,-3.82,-4.56,0
29.551,-3.82,-4.56,0
29.571,-3.7,-4.56,0
29.591,-3.82,-4.56,0
29.611,-4.31,-5.05,0
29.63,-5.54,-6.15,0
29.651,-6.39,-6.88,0
29.67,-6.88,-8.1,0
29.691,-7.37,-9.08,0
29.711,,,
29.731,-8.35,-9.45,0
29.751,-8.96,-9.69,0
29.771,-9.45,-9.81,0
29.791,-9.69,-9.93,0
29.811,-9.81,-10.06,0
29.831,-9.93,-10.06,0
29.852,-9.93,-10.06,0
29.871,-10.06,-10.06,0
29.892,,,
29.912,-10.06,-10.18,0
29.932,-10.06,-10.18,0
29.951,-10.06,-10.18,0
29.971,-10.06,-10.18,0
29.991,-10.18,-10.3,0
30.014,-10.3,-10.18,0
30.034,,,
30.051,-10.18,-10.18,0
30.071,-10.18,-10.18,0
30.091,-10.18,-10.18,0
30.112,-10.18,-10.18,0
30.132,-10.18,-10.18,0
30.157,-10.3,-10.18,0
30.181,-10.3,-10.3,0
30.202,,,
30.222,-10.18,-10.18,0
30.243,-10.3,-10.3,0
30.263,-10.18,-10.3,0
30.283,-10.18,-10.3,0
30.302,-10.18,-10.3,0
30.325,-10.18,-10.3,0
30.346,,,
30.363,-10.3,-10.18,0
30.383,-10.3,-10.3,0
30.403,-10.3,-10.3,0
30.423,-10.3,-10.18,1
30.443,-10.3,-10.3,1
30.468,-10.3,-10.3,1
30.493,-10.18,-10.3,1
30.513,,,
30.523,-10.3,-10.3,1
30.543,-10.3,-10.3,1
30.563,-10.3,-10.3,1
30.587,-10.18,-10.3,1
30.612,-10.3,-10.3,1
30.636,-10.3,-10.3,1
30.661,-10.3,-10.3,1
30.682,,,
30.693,-10.42,-10.3,1
30.712,-10.42,-10.3,1
30.733,-10.3,-10.3,1
30.755,-9.93,-9.81,1
30.776,-9.32,-9.32,1
30.801,-8.59,-8.59,1
30.82,-8.22,-7.49,1
30.841,,,
30.852,-7.61,-6.88,1
30.872,-6.76,-6.51,1
30.892,-6.27,-6.27,1
30.912,-5.78,-6.02,1
30.932,-5.41,-5.78,1
30.952,-5.05,-5.66,1
30.972,,,
30.993,-4.8,-5.41,1
31.012,-4.68,-5.29,1
31.017,-4.56,-5.29,1
31.037,,,
31.057,-4.68,-5.17,1
31.078,-4.56,-5.05,1
31.097,-4.31,-5.17,1
31.117,-4.31,-5.05,0
31.137,-4.19,-5.05,0
31.157,-4.07,-5.05,0
31.177,-3.95,-5.05,0
31.197,-4.07,-4.92,0
31.217,-4.19,-4.92,0
31.237,,,
31.257,-4.19,-4.8,0
31.278,-4.07,-4.8,0
31.297,-4.19,-4.8,0
31.317,-4.07,-4.8,0
31.338,-3.95,-4.8,0
31.357,-4.07,-4.8,0
31.378,-4.07,-4.8,0
31.398,-4.19,-4.92,0
31.417,-4.19,-4.92,0
31.432,,,
31.453,-3.95,-4.92,0
31.473,-4.07,-4.8,0
31.492,-3.95,-4.8,0
31.513,-3.82,-4.8,0
31.532,-3.95,-4.68,0
31.552,-4.07,-4.8,0
31.572,-4.07,-4.68,0
31.593,-3.95,-4.8,0
31.612,-4.07,-4.8,0
31.632,-4.07,-4.8,0
31.653,-3.95,-4.8,0
31.673,-3.95,-4.8,0
31.698,-3.82,-4.8,0
31.718,-3.82,-4.68,0
31.738,-3.95,-4.68,0
31.762,-3.82,-4.68,0
31.783,-3.82,-4.56,0
31.804,-3.82,-4.56,0
31.828,-3.7,-4.68,0
31.849,-3.82,-4.68,0
31.87,-3.82,-4.68,0
31.894,-4.8,-5.66,0
31.914,-5.9,-6.51,0
31.935,,,
31.95,-6.63,-7.37,0
31.97,-7.0,-8.59,0
31.99,-7.61,-9.2,0
32.009,-8.59,-9.57,0
32.029,-9.2,-9.69,0
32.049,-9.57,-9.81,0
32.069,,,
32.089,-9.81,-9.93,0
32.11,-9.81,-10.06,0
32.13,-9.93,-10.06,0
32.149,-9.93,-10.06,0
32.169,-10.06,-10.06,0
32.189,-10.06,-10.06,0
32.21,-10.06,-10.18,0
32.23,-10.18,-10.18,0
32.255,-10.18,-10.18,0
32.279,-10.3,-10.18,0
32.303,-10.18,-10.18,0
32.324,,,
32.336,-10.18,-10.18,0
32.355,-10.18,-10.18,0
32.376,-10.18,-10.18,0
32.397,-10.3,-10.18,0
32.422,-10.3,-10.18,0
32.447,-10.3,-10.3,0
32.468,,,
32.476,-10.3,-10.3,0
32.496,,,
32.516,-10.18,-10.3,0
32.535,-10.3,-10.3,0
32.556,-10.3,-10.3,0
32.576,-10.18,-10.3,0
32.595,-10.3,-10.18,0
32.616,-10.3,-10.3,0
32.636,,,
32.656,-10.3,-10.3,0
32.676,-10.3,-10.3,0
32.696,-10.3,-10.3,0
32.716,-10.3,-10.3,1
32.736,-10.3,-10.3,1
32.758,-10.3,-10.3,1
32.779,,,
32.796,-10.3,-10.3,1
32.816,-10.3,-10.3,1
32.836,-10.3,-10.3,1
32.856,-10.18,-10.3,1
32.877,-10.3,-10.3,1
32.901,-10.3,-10.3,1
32.926,-10.3,-10.3,1
32.947,,,
32.956,-10.3,-10.3,1
32.977,-10.42,-10.3,1
32.996,-10.3,-10.3,1
33.02,-10.3,-10.18,1
33.045,-9.69,-9.69,1
33.065,-9.08,-8.96,1
33.086,,,
33.106,-8.59,-8.1,1
33.126,-8.1,-7.25,1
33.146,-7.37,-6.76,1
33.165,-6.51,-6.39,1
33.186,-6.02,-6.15,1
33.206,-5.54,-5.9,1
33.226,-5.29,-5.78,1
33.246,-5.05,-5.54,1
33.266,-4.8,-5.41,1
33.286,-4.56,-5.29,1
33.306,-4.56,-5.17,1
33.327,-4.56,-5.05,1
33.352,-4.44,-5.05,1
33.373,-4.31,-4.92,1
33.393,,,
33.405,-4.19,-4.92,0
33.426,-4.07,-4.92,0
33.445,-3.82,-4.8,0
33.465,-3.82,-4.8,0
33.486,-3.95,-4.8,0
33.505,-3.95,-4.68,0
33.525,,,
33.546,-3.95,-4.68,0
33.566,-3.95,-4.56,0
33.586,-3.95,-4.56,0
33.606,-3.95,-4.56,0
33.625,-3.7,-4.56,0
33.645,-3.82,-4.56,0
33.666,-3.82,-4.56,0
33.685,-3.82,-4.68,0
33.706,-3.82,-4.56,0
33.726,-3.82,-4.56,0
33.746,-3.95,-4.56,0
33.765,-3.82,-4.44,0
33.786,,,
33.806,-3.82,-4.44,0
33.827,-3.82,-4.44,0
33.845,-3.82,-4.44,0
33.865,-3.82,-4.44,0
33.876,-3.82,-4.44,0
33.897,-3.82,-4.44,0
33.917,,,
33.936,-3.95,-4.56,0
33.956,-3.82,-4.56,0
33.977,-3.7,-4.56,0
33.997,-3.7,-4.56,0
34.016,-3.7,-4.44,0
34.036,-3.7,-4.44,0
34.057,-3.7,-4.44,0
34.077,-3.7,-4.44,0
34.097,-3.7,-4.44,0
34.116,,,
34.136,-3.58,-4.44,0
34.156,-3.7,-4.44,0
34.177,-3.95,-4.68,0
34.197,-5.17,-5.78,0
34.217,-6.15,-6.63,0
34.237,-6.76,-7.86,0
34.256,-7.25,-8.83,0
34.276,-7.98,-9.32,0
34.29,-8.83,-9.69,0
34.315,-9.45,-9.81,0
34.335,-9.69,-9.93,0
34.355,-9.81,-10.06,0
34.38,-9.93,-10.18,0
34.4,,,
34.41,-10.06,-10.18,0
34.431,-10.06,-10.18,0
34.451,-10.06,-10.18,0
34.474,-10.06,-10.3,0
34.499,-10.18,-10.3,0
34.524,-10.18,-10.3,0
34.544,,,
34.551,-10.18,-10.3,0
34.57,,,
34.591,-10.3,-10.3,0
34.61,-10.18,-10.3,0
34.63,-10.18,-10.3,0
34.65,-10.18,-10.3,0
34.671,-10.3,-10.3,0
34.692,-10.3,-10.3,0
34.712,,,
34.732,-10.18,-10.3,0
34.752,-10.3,-10.3,0
34.773,-10.3,-10.3,0
34.792,-10.3,-10.3,0
34.812,-10.18,-10.3,0
34.835,-10.3,-10.3,0
34.859,-10.18,-10.3,0
34.88,,,
34.892,-10.18,-10.3,0
34.913,-10.3,-10.42,0
34.932,-10.3,-10.3,0
34.953,-10.3,-10.3,0
34.978,-10.3,-10.3,0
35.002,-10.3,-10.42,1
35.023,,,
35.032,-10.3,-10.3,1
35.052,-10.3,-10.3,1
35.072,-10.3,-10.42,1
35.096,-10.3,-10.3,1
35.121,-10.3,-10.42,1
35.146,-10.3,-10.42,1
35.17,-10.3,-10.42,1
35.191,,,
35.202,-10.3,-10.42,1
35.222,-10.3,-10.42,1
35.242,-10.42,-10.42,1
35.265,-10.42,-10.42,1
35.29,-10.42,-10.42,1
35.313,-10.06,-10.06,1
35.334,,,
35.342,-9.45,-9.45,1
35.362,-8.83,-8.71,1
35.382,-8.47,-7.73,1
35.404,-7.73,-7.0,1
35.425,-6.88,-6.63,1
35.445,-6.27,-6.27,1
35.469,-5.78,-6.02,1
35.489,-5.41,-5.9,1
35.51,-5.17,-5.66,1
35.535,-4.92,-5.41,1
35.556,-4.68,-5.29,1
35.576,-4.56,-5.17,1
35.6,-4.56,-5.17,1
35.62,-4.56,-5.05,1
35.642,,,
35.656,-4.44,-5.05,1
35.676,-4.31,-4.92,0
35.696,-4.19,-4.92,0
35.716,-4.07,-4.92,0
35.735,-3.95,-4.92,0
35.755,-4.07,-4.92,0
35.776,,,
35.796,-4.07,-4.68,0
35.816,-3.95,-4.68,0
35.836,-3.95,-4.68,0
35.856,-4.07,-4.68,0
35.876,-4.07,-4.68,0
35.896,-3.95,-4.68,0
35.916,-3.82,-4.68,0
35.936,-3.95,-4.68,0
35.957,-3.95,-4.8,0
35.976,-3.95,-4.68,0
35.997,-3.95,-4.68,0
36.016,-3.95,-4.56,0
36.037,,,
36.057,-3.95,-4.56,0
36.077,-4.31,-4.56,0
36.097,-4.8,-4.56,0
36.117,-5.17,-4.56,0
36.137,-5.41,-4.56,0
36.157,-5.41,-4.56,0
36.177,-5.54,-4.56,0
36.197,-5.54,-4.68,0
36.216,-5.54,-4.68,0
36.237,-5.41,-4.56,0
36.257,-5.41,-4.68,0
36.276,-5.41,-4.56,0
36.297,,,
36.316,-5.41,-4.56,0
