Time (s),Pressure 1 (kPa),Pressure 2 (kPa),Switch State
0.209,-7.61,-7.86,1
0.229,-7.61,-7.86,1
0.25,-7.49,-7.86,1
0.27,-7.61,-7.86,1
0.29,-7.61,-7.86,1
0.309,-7.61,-7.86,1
0.33,-7.61,-7.86,1
0.35,-7.61,-7.86,1
0.37,-7.61,-7.86,1
0.389,-7.61,-7.86,1
0.41,-7.61,-7.86,1
0.429,-7.61,-7.98,1
0.45,-7.61,-7.98,1
0.47,-7.61,-7.86,1
0.49,-7.49,-7.86,1
0.51,-7.61,-7.86,1
0.529,-7.49,-7.98,1
0.55,-7.61,-7.86,1
0.569,-7.61,-7.86,1
0.59,-7.61,-7.98,1
0.609,-7.61,-7.86,1
0.63,-7.61,-7.86,1
0.651,-7.61,-7.98,1
0.67,-7.61,-7.98,1
0.69,-7.61,-7.86,1
0.71,-7.61,-7.98,1
0.73,-7.61,-7.86,1
0.75,-7.61,-7.86,1
0.77,-7.61,-7.86,1
0.79,-7.61,-7.86,1
0.81,-7.61,-7.86,1
0.83,-7.61,-7.86,1
0.851,-7.61,-7.86,1
0.87,-7.61,-7.86,1
0.889,-7.61,-7.86,1
0.91,-7.61,-7.86,1
0.93,-7.61,-7.86,1
0.95,-7.61,-7.98,1
0.97,-7.49,-7.98,1
0.99,-7.61,-7.86,1
1.01,-7.61,-7.86,1
1.011,-7.61,-7.86,1
1.031,-7.61,-7.86,1
1.052,-7.61,-7.86,1
1.071,-7.61,-7.98,1
1.091,-7.61,-7.86,1
1.111,-7.61,-7.86,1
1.132,-7.61,-7.86,1
1.151,-7.61,-7.86,1
1.171,-7.61,-7.86,1
1.192,-7.61,-7.86,1
1.212,-7.49,-7.86,1
1.231,-7.61,-7.98,1
1.251,-7.61,-7.86,1
1.272,-7.61,-7.86,1
1.291,-7.61,-7.86,1
1.311,-7.61,-7.86,1
1.331,-7.61,-7.98,1
1.351,-7.61,-7.86,1
1.371,-7.61,-7.98,1
1.392,-7.61,-7.86,1
1.412,-7.61,-7.86,1
1.413,-7.61,-7.86,1
1.433,-7.61,-7.86,1
1.454,-7.61,-7.86,1
1.474,-7.61,-7.86,1
1.494,-7.61,-7.98,1
1.514,-7.61,-7.98,1
1.534,-7.61,-7.86,1
1.554,-7.61,-7.98,1
1.574,-7.61,-7.86,1
1.594,-7.61,-7.98,1
1.614,-7.49,-7.86,1
1.634,-7.61,-7.86,1
1.654,-7.61,-7.86,1
1.674,-7.61,-7.86,1
1.693,-7.61,-7.86,1
1.715,-7.61,-7.86,1
1.734,-7.61,-7.98,1
1.754,-7.61,-7.98,1
1.774,-7.61,-7.86,1
1.794,-7.61,-7.86,1
1.814,-7.61,-7.86,1
1.814,-7.49,-7.98,1
1.834,-7.61,-7.86,1
1.854,-7.61,-7.86,1
1.874,-7.61,-7.86,1
1.894,-7.61,-7.86,1
1.914,-7.61,-7.98,1
1.934,-7.61,-7.98,1
1.954,-7.61,-7.98,1
1.975,-7.61,-7.98,1
1.994,-7.61,-7.86,1
2.014,-7.61,-7.86,1
2.034,-7.49,-7.86,1
2.054,-7.61,-7.86,1
2.074,-7.61,-7.86,1
2.094,-7.61,-7.86,1
2.114,-7.61,-7.86,1
2.134,-7.61,-7.86,1
2.154,-7.49,-7.98,1
2.174,-7.61,-7.98,1
2.194,-7.61,-7.86,1
2.215,-7.61,-7.86,1
2.235,-7.61,-7.86,1
2.255,-7.61,-7.86,1
2.276,-7.61,-7.86,1
2.295,-7.61,-7.86,1
2.315,-7.61,-7.86,1
2.336,-7.61,-7.98,1
2.355,-7.61,-7.86,1
2.376,-7.61,-7.98,1
2.395,-7.61,-7.86,1
2.415,-7.61,-7.86,1
2.435,-7.61,-7.86,1
2.456,-7.61,-7.86,1
2.475,-7.61,-7.86,1
2.495,-7.61,-7.86,1
2.515,-7.61,-7.86,1
2.536,-7.61,-7.86,1
2.555,-7.61,-7.86,1
2.576,-7.61,-7.86,1
2.596,-7.49,-7.86,1
2.615,-7.61,-7.86,1
2.615,-7.61,-7.86,1
2.636,-7.61,-7.98,1
2.656,-7.61,-7.98,1
2.676,-7.61,-7.86,1
2.696,-7.61,-7.86,1
2.716,-7.61,-7.86,1
2.736,-7.61,-7.86,1
2.756,-7.61,-7.86,1
2.776,-7.61,-7.98,1
2.796,-7.61,-7.98,1
2.816,-7.61,-7.86,1
2.836,-7.61,-7.86,1
2.856,-7.61,-7.86,1
2.876,-7.61,-7.98,1
2.896,-7.61,-7.86,1
2.915,-7.61,-7.86,1
2.936,-7.49,-7.86,1
2.956,-7.61,-7.86,1
2.976,-7.61,-7.86,1
2.996,-7.61,-7.86,1
3.016,-7.61,-7.86,1
3.037,-7.61,-7.86,1
3.057,-7.61,-7.86,1
3.077,-7.61,-7.98,1
3.097,-7.61,-7.86,1
3.116,-7.61,-7.98,1
3.137,-7.61,-7.86,1
3.157,-7.61,-7.86,1
3.177,-7.61,-7.98,1
3.197,-7.61,-7.86,1
3.217,-7.61,-7.86,1
3.237,-7.61,-7.98,1
3.256,-7.61,-7.86,1
3.277,-7.61,-7.98,1
3.297,-7.61,-7.98,1
3.318,-7.61,-7.86,1
3.337,-7.61,-7.86,1
3.357,-7.61,-7.86,1
3.377,-7.61,-7.98,1
3.397,-7.61,-7.86,1
3.416,-7.37,-7.86,1
3.416,-7.0,-7.98,1
3.437,-6.88,-7.86,1
3.457,-6.88,-7.86,1
3.477,-7.0,-7.86,1
3.497,-7.12,-7.86,1
3.517,-7.25,-7.86,1
3.537,-7.37,-7.86,1
3.557,-7.37,-7.98,1
3.577,-7.37,-7.86,1
3.597,-7.49,-7.86,1
3.617,-7.49,-7.98,1
3.637,-7.49,-7.86,1
3.657,-7.49,-7.86,1
3.677,-7.49,-7.86,1
3.697,-7.49,-7.86,1
3.717,-7.49,-7.98,1
3.737,-7.49,-7.86,1
3.757,-7.49,-7.98,1
3.777,-7.61,-8.22,1
3.797,-7.61,-8.59,1
3.817,-7.49,-8.83,1
3.837,-7.61,-9.08,1
3.857,-7.49,-8.96,1
3.878,-7.61,-8.71,1
3.898,-7.61,-8.47,1
3.918,-7.61,-8.22,1
3.937,-7.61,-8.22,1
3.958,-7.61,-8.1,1
3.978,-7.61,-7.98,1
3.998,-7.49,-7.98,1
4.018,-7.61,-7.98,1
4.038,-7.49,-7.98,1
4.058,-7.61,-7.98,1
4.078,-7.61,-7.98,1
4.098,-7.61,-7.98,1
4.118,-7.61,-7.98,1
4.138,-7.49,-7.98,1
4.158,-7.61,-7.98,1
4.177,-7.61,-7.98,1
4.198,-7.49,-7.98,1
4.217,-7.61,-7.98,1
4.217,-7.61,-7.98,1
4.238,-7.61,-7.98,1
4.258,-7.61,-7.98,1
4.278,-7.61,-7.98,1
4.297,-7.61,-7.98,1
4.318,-7.61,-7.98,1
4.338,-7.49,-7.86,1
4.358,-7.61,-7.86,1
4.378,-7.61,-7.98,1
4.397,-7.61,-7.98,1
4.418,-7.61,-7.98,1
4.438,-7.61,-7.98,1
4.458,-7.61,-7.98,1
4.478,-7.49,-7.86,1
4.499,-7.49,-7.98,1
4.518,-7.61,-7.98,1
4.538,-7.61,-7.86,1
4.558,-7.61,-7.86,1
4.578,-7.61,-7.98,1
4.599,-7.61,-7.98,1
4.618,-7.61,-7.98,1
4.618,-7.61,-7.98,1
4.639,-7.61,-7.86,1
4.658,-7.61,-7.98,1
4.679,-7.61,-7.98,1
4.698,-7.49,-7.98,1
4.718,-7.61,-7.98,1
4.738,-7.61,-7.86,1
4.759,-7.37,-7.61,1
4.778,-6.63,-6.76,1
4.799,-5.41,-5.78,1
4.819,-4.68,-5.17,1
4.839,-3.95,-4.56,1
4.858,-3.21,-4.07,1
4.878,-2.97,-3.7,1
4.899,-2.36,-3.34,1
4.918,-2.24,-3.09,1
4.939,-2.11,-2.85,1
4.959,-1.63,-2.72,0
4.978,-1.5,-2.6,0
4.999,-1.01,-2.36,0
5.019,-1.14,-2.24,0
5.019,-1.01,-2.11,0
5.039,-1.01,-2.11,0
5.059,-0.89,-2.11,0
5.079,-0.77,-1.99,0
5.1,-1.01,-1.99,0
5.119,-0.89,-1.87,0
5.139,-0.65,-1.87,0
5.159,-0.4,-1.75,0
5.179,-0.53,-1.75,0
5.199,-0.77,-1.75,0
5.221,-0.77,-1.87,0
5.244,-0.65,-1.75,0
5.259,-0.53,-1.75,0
5.279,-0.4,-1.75,0
5.303,-0.53,-1.75,0
5.319,-0.4,-1.75,0
5.342,-0.4,-1.75,0
5.36,-0.89,-2.36,0
5.379,-3.09,-4.07,0
5.401,-4.8,-6.15,0
5.419,-6.39,-8.59,0
5.441,-8.71,-9.81,0
5.46,-9.93,-10.3,0
5.482,-10.54,-10.67,0
5.501,-10.79,-10.79,0
5.524,-10.91,-10.91,0
5.541,-11.03,-11.03,0
5.565,-11.16,-11.16,0
5.581,-11.16,-11.16,0
5.599,-11.28,-11.16,0
5.623,-11.28,-11.16,0
5.639,-11.28,-11.28,0
5.66,-11.4,-11.28,0
5.681,-11.28,-11.28,0
5.705,-11.28,-11.28,0
5.722,-11.28,-11.28,0
5.747,-11.4,-11.28,0
5.763,-11.4,-11.28,0
5.78,-11.4,-11.28,0
5.8,-11.4,-11.28,1
5.82,-11.4,-11.28,1
5.843,-11.4,-11.28,1
5.861,-11.4,-11.28,1
5.885,-11.4,-11.28,1
5.902,-11.4,-11.28,1
5.92,-11.4,-11.4,1
5.943,-11.4,-11.4,1
5.961,-11.4,-11.28,1
5.984,-10.91,-10.67,1
6.0,-10.18,-9.45,1
6.025,-8.96,-7.73,1
6.042,-7.25,-6.51,1
6.06,-5.9,-5.78,1
6.081,-4.68,-5.17,1
6.1,-4.19,-4.56,1
6.121,-3.46,-4.07,1
6.14,-3.21,-3.7,1
6.163,-2.97,-3.46,1
6.181,-2.48,-3.34,0
6.2,-2.11,-3.09,0
6.223,-1.63,-2.97,0
6.223,-1.75,-2.72,0
6.247,-1.63,-2.48,0
6.264,-1.38,-2.36,0
6.289,-1.26,-2.36,0
6.305,-1.01,-2.36,0
6.323,-1.26,-2.36,0
6.343,-1.14,-2.24,0
6.365,-0.89,-2.11,0
6.389,-0.77,-2.11,0
6.406,-0.65,-1.99,0
6.426,-1.01,-1.99,0
6.443,-1.01,-1.99,0
6.464,-0.89,-2.11,0
6.488,-0.65,-1.99,0
6.505,-0.4,-1.87,0
6.523,-0.65,-1.87,0
6.544,-0.53,-1.75,0
6.565,-0.4,-1.75,0
6.585,-1.01,-2.24,0
6.61,-2.97,-4.07,0
6.627,-4.92,-5.78,1
6.651,-6.27,-8.35,0
6.668,-8.59,-9.69,0
6.692,-9.81,-10.3,0
6.709,-10.42,-10.67,0
6.727,-10.79,-10.79,0
6.75,-10.91,-10.91,0
6.768,-11.03,-11.03,0
6.789,-11.16,-11.16,0
6.807,-11.28,-11.16,0
6.832,-11.28,-11.16,0
6.849,-11.28,-11.16,0
6.867,-11.4,-11.16,0
6.887,-11.4,-11.16,0
6.908,-11.28,-11.28,0
6.927,-11.28,-11.28,0
6.948,-11.4,-11.28,0
6.971,-11.4,-11.28,0
6.987,-11.4,-11.28,0
7.012,-11.4,-11.28,0
7.028,-11.4,-11.28,1
7.028,-11.28,-11.28,1
7.048,-11.4,-11.4,1
7.069,-11.4,-11.28,1
7.089,-11.4,-11.28,1
7.11,-11.4,-11.4,1
7.135,-11.4,-11.4,1
7.152,-11.4,-11.28,1
7.169,-11.4,-11.16,1
7.193,-10.91,-10.67,1
7.209,-10.18,-9.45,1
7.228,-9.45,-7.86,1
7.251,-7.73,-6.63,1
7.269,-6.27,-5.78,1
7.289,-5.17,-5.05,1
7.31,-4.44,-4.56,1
7.329,-3.7,-4.07,1
7.349,-3.21,-3.82,1
7.37,-3.09,-3.46,1
7.395,-2.72,-3.21,0
7.411,-2.24,-2.97,0
7.428,-1.63,-2.85,0
7.428,-1.5,-2.72,0
7.453,-1.63,-2.6,0
7.469,-1.5,-2.48,0
7.494,-1.38,-2.36,0
7.509,-1.14,-2.36,0
7.529,-1.14,-2.24,0
7.55,-1.14,-2.24,0
7.575,-1.01,-2.11,0
7.588,-0.89,-2.11,0
7.608,-0.65,-1.99,0
7.634,-0.77,-1.99,0
7.65,-1.14,-1.99,0
7.669,-0.89,-1.99,0
7.691,-0.77,-1.87,0
7.709,-0.4,-1.87,0
7.732,-0.65,-1.75,0
7.749,-0.65,-1.75,0
7.773,-0.4,-1.75,0
7.789,-0.89,-2.36,0
7.813,-2.97,-4.07,0
7.829,-4.8,-6.27,0
7.829,-6.15,-8.71,0
7.854,-8.47,-9.93,0
7.87,-9.81,-10.42,0
7.894,-10.42,-10.67,0
7.911,-10.67,-10.91,0
7.93,-10.91,-11.03,0
7.953,-11.03,-11.03,0
7.969,-11.16,-11.16,0
7.992,-11.28,-11.16,0
8.012,-11.28,-11.16,0
8.036,-11.28,-11.16,0
8.052,-11.28,-11.28,0
8.077,-11.4,-11.28,0
8.093,-11.28,-11.28,0
8.111,-11.28,-11.28,0
8.137,-11.28,-11.28,0
8.153,-11.4,-11.28,0
8.17,-11.4,-11.28,0
8.194,-11.4,-11.28,0
8.21,-11.4,-11.28,1
8.231,-11.4,-11.28,1
8.252,-11.4,-11.28,1
8.276,-11.4,-11.28,1
8.293,-11.4,-11.4,1
8.311,-11.4,-11.4,1
8.332,-11.4,-11.28,1
8.351,-11.4,-11.4,1
8.375,-11.4,-11.28,1
8.392,-10.79,-10.67,1
8.416,-10.18,-10.06,1
8.433,-9.08,-9.08,1
8.457,-7.25,-7.61,1
8.474,-6.02,-6.51,1
8.495,-5.05,-5.78,1
8.515,-4.19,-5.05,1
8.532,-3.58,-4.44,1
8.556,-3.09,-4.07,1
8.573,-2.97,-3.7,1
8.598,-2.6,-3.46,1
8.611,-2.11,-3.34,0
8.638,-1.75,-3.09,0
8.638,-1.5,-2.97,0
8.663,-1.63,-2.72,0
8.679,-1.63,-2.48,0
8.714,-1.38,-2.48,0
8.719,-1.01,-2.36,0
8.738,-1.01,-2.36,0
8.761,-1.14,-2.36,0
8.78,-1.01,-2.24,0
8.804,-0.89,-2.11,0
8.821,-0.65,-1.99,0
8.845,-0.77,-1.99,0
8.861,-1.01,-1.99,0
8.879,-0.89,-1.99,0
8.902,-0.89,-1.99,0
8.919,-0.53,-1.99,0
8.943,-0.65,-1.87,0
8.96,-0.77,-1.75,0
8.984,-0.4,-1.75,0
9.001,-1.14,-2.36,0
9.023,-3.21,-3.95,0
9.041,-4.92,-5.41,0
9.042,-6.51,-7.86,0
9.063,-8.59,-9.57,0
9.084,-9.93,-10.3,0
9.102,-10.54,-10.54,0
9.123,-10.67,-10.79,0
9.142,-10.91,-10.91,0
9.162,-11.03,-11.03,0
9.185,-11.16,-11.16,0
9.202,-11.16,-11.16,0
9.222,-11.28,-11.16,0
9.242,-11.28,-11.16,0
9.263,-11.4,-11.28,0
9.282,-11.4,-11.28,0
9.303,-11.28,-11.28,0
9.322,-11.28,-11.28,0
9.342,-11.28,-11.28,0
9.363,-11.4,-11.28,0
9.383,-11.4,-11.28,0
9.402,-11.4,-11.28,1
9.422,-11.4,-11.28,1
9.442,-11.4,-11.28,1
9.442,-11.4,-11.4,1
9.462,-11.4,-11.28,1
9.482,-11.4,-11.4,1
9.502,-11.4,-11.4,1
9.522,-11.4,-11.4,1
9.542,-11.4,-11.4,1
9.563,-11.28,-11.16,1
9.582,-10.67,-10.42,1
9.602,-9.93,-8.96,1
9.622,-8.71,-7.25,1
9.643,-6.76,-6.15,1
9.662,-5.54,-5.54,1
9.682,-4.68,-4.8,1
9.702,-3.95,-4.31,1
9.723,-3.21,-3.95,1
9.743,-2.85,-3.46,1
9.762,-2.72,-3.34,1
9.782,-2.36,-3.09,0
9.803,-1.99,-2.97,0
9.823,-1.5,-2.72,0
9.843,-1.5,-2.6,0
9.863,-1.63,-2.48,0
9.883,-1.38,-2.36,0
9.903,-1.14,-2.36,0
9.924,-0.89,-2.24,0
9.943,-1.14,-2.24,0
9.963,-1.14,-2.11,0
9.983,-0.77,-2.11,0
10.003,-0.65,-1.99,0
10.023,-0.77,-1.87,0
10.043,-1.01,-1.99,0
10.063,-0.77,-1.99,0
10.083,-0.77,-1.87,0
10.103,-0.4,-1.87,0
10.123,-0.65,-1.75,0
10.143,-0.77,-1.63,0
10.163,-0.4,-1.75,0
10.183,-2.24,-3.34,0
10.203,-4.44,-5.29,0
10.223,-5.9,-7.73,0
10.244,-8.22,-9.57,0
10.244,-9.81,-10.3,0
10.264,-10.42,-10.67,0
10.284,-10.67,-10.91,0
10.304,-10.91,-11.03,0
10.324,-11.03,-11.16,0
10.344,-11.16,-11.16,0
10.365,-11.16,-11.16,0
10.384,-11.28,-11.16,0
10.404,-11.28,-11.28,0
10.425,-11.28,-11.28,0
10.444,-11.28,-11.28,0
10.464,-11.28,-11.28,0
10.484,-11.28,-11.28,0
10.504,-11.4,-11.28,0
10.524,-11.4,-11.28,0
10.544,-11.4,-11.28,0
10.565,-11.4,-11.28,1
10.584,-11.4,-11.4,1
10.604,-11.4,-11.28,1
10.624,-11.4,-11.4,1
10.644,-11.4,-11.28,1
10.644,-11.4,-11.4,1
10.665,-11.52,-11.4,1
10.685,-11.4,-11.28,1
10.705,-11.4,-11.28,1
10.725,-10.79,-10.67,1
10.745,-10.18,-9.32,1
10.765,-8.83,-7.61,1
10.785,-6.88,-6.39,1
10.805,-5.78,-5.66,1
10.825,-4.8,-4.92,1
10.845,-3.95,-4.44,1
10.864,-3.34,-3.95,1
10.885,-2.85,-3.7,1
10.905,-2.72,-3.34,1
10.925,-2.48,-3.21,0
10.945,-1.99,-2.97,0
10.965,-1.5,-2.72,0
10.985,-1.26,-2.6,0
11.005,-1.63,-2.48,0
11.025,-1.38,-2.24,0
11.045,-1.14,-2.36,0
11.045,-1.01,-2.36,0
11.066,-1.14,-2.24,0
11.085,-1.26,-2.24,0
11.105,-0.77,-2.11,0
11.125,-0.65,-1.99,0
11.145,-0.65,-1.99,0
11.165,-0.89,-1.87,0
11.185,-1.01,-1.99,0
11.205,-0.65,-1.99,0
11.226,-0.4,-1.87,0
11.246,-0.28,-1.87,0
11.265,-0.53,-1.63,0
11.285,-0.4,-1.63,0
11.305,-1.99,-3.34,0
11.325,-4.07,-5.05,0
11.345,-5.66,-7.86,0
11.366,-7.86,-9.57,0
11.386,-9.69,-10.3,0
11.405,-10.3,-10.67,0
11.426,-10.67,-10.79,0
11.445,-10.91,-11.03,0
11.445,-11.03,-11.03,0
11.465,-11.16,-11.16,0
11.485,-11.16,-11.16,0
11.505,-11.28,-11.28,0
11.525,-11.28,-11.16,0
11.546,-11.28,-11.28,0
11.566,-11.28,-11.28,0
11.586,-11.28,-11.28,0
11.605,-11.28,-11.28,0
11.626,-11.4,-11.28,0
11.646,-11.4,-11.28,0
11.665,-11.4,-11.28,0
11.685,-11.4,-11.28,1
11.705,-11.4,-11.4,1
11.725,-11.4,-11.4,1
11.745,-11.4,-11.4,1
11.776,-11.4,-11.4,1
11.786,-11.4,-11.4,1
11.805,-11.4,-11.4,1
11.825,-11.4,-11.4,1
11.846,-11.4,-11.28,1
11.846,-10.91,-10.79,1
11.866,-10.18,-9.57,1
11.886,-9.2,-7.73,1
11.906,-7.12,-6.51,1
11.926,-5.66,-5.78,1
11.946,-4.92,-5.05,1
11.966,-4.19,-4.44,1
11.986,-3.46,-4.07,1
12.006,-2.85,-3.58,1
12.027,-2.72,-3.34,1
12.047,-2.48,-3.21,0
12.066,-1.99,-2.97,0
12.086,-1.63,-2.85,0
12.106,-1.38,-2.72,0
12.126,-1.5,-2.48,0
12.146,-1.5,-2.36,0
12.166,-1.26,-2.36,0
12.186,-1.01,-2.24,0
12.206,-1.01,-2.24,0
12.226,-1.26,-2.11,0
12.246,-1.01,-1.99,0
12.246,-0.77,-1.99,0
12.266,-0.65,-1.87,0
12.287,-1.01,-1.87,0
12.307,-1.14,-1.99,0
12.327,-0.77,-1.99,0
12.347,-0.53,-1.87,0
12.366,-0.53,-1.87,0
12.386,-0.65,-1.63,0
12.407,-0.53,-1.63,0
12.426,-1.75,-2.97,0
12.447,-3.82,-4.68,0
12.466,-5.41,-7.0,0
12.486,-7.61,-9.2,0
12.506,-9.57,-10.18,0
12.527,-10.3,-10.54,0
12.546,-10.67,-10.79,0
12.566,-10.79,-10.91,0
12.586,-11.03,-11.03,0
12.607,-11.16,-11.16,0
12.626,-11.16,-11.16,0
12.646,-11.28,-11.28,0
12.667,-11.28,-11.28,0
12.687,-11.4,-11.28,0
12.707,-11.28,-11.16,0
12.727,-11.28,-11.28,0
12.747,-11.28,-11.28,0
12.767,-11.4,-11.28,0
12.787,-11.4,-11.28,0
12.806,-11.4,-11.28,0
12.827,-11.4,-11.28,1
12.847,-11.4,-11.4,1
12.867,-11.28,-11.28,1
12.887,-11.28,-11.4,1
12.907,-11.4,-11.28,1
12.927,-11.4,-11.4,1
12.947,-11.52,-11.4,1
12.968,-11.4,-11.4,1
12.987,-11.4,-11.4,1
13.007,-11.03,-10.79,1
13.027,-10.3,-9.81,1
13.046,-9.45,-7.98,1
13.067,-7.61,-6.63,1
13.087,-6.02,-5.9,1
13.107,-5.17,-5.17,1
13.127,-4.31,-4.56,1
13.147,-3.7,-4.07,1
13.167,-2.97,-3.7,1
13.186,-2.72,-3.34,1
13.207,-2.6,-3.21,0
13.227,-2.11,-3.09,0
13.247,-1.87,-2.72,0
13.267,-1.38,-2.72,0
13.286,-1.38,-2.48,0
13.307,-1.63,-2.36,0
13.327,-1.26,-2.36,0
13.347,-1.01,-2.24,0
13.367,-0.89,-2.11,0
13.386,-1.14,-1.99,0
13.407,-1.01,-1.87,0
13.427,-0.77,-1.87,0
13.448,-0.65,-1.87,0
13.448,-0.77,-1.87,0
13.469,-1.14,-1.99,0
13.488,-0.89,-1.87,0
13.508,-0.65,-1.75,0
13.529,-0.4,-1.75,0
13.549,-0.65,-1.63,0
13.568,-0.65,-1.5,0
13.589,-1.26,-2.6,0
13.608,-3.34,-4.31,0
13.629,-5.17,-6.51,0
13.648,-6.76,-8.96,0
13.669,-8.96,-10.06,0
13.689,-10.06,-10.54,0
13.708,-10.42,-10.79,0
13.729,-10.79,-10.91,0
13.749,-11.03,-11.03,0
13.768,-11.16,-11.16,0
13.789,-11.16,-11.16,0
13.808,-11.16,-11.28,0
13.829,-11.28,-11.28,0
13.848,-11.4,-11.28,0
13.848,-11.28,-11.28,0
13.869,-11.28,-11.28,0
13.889,-11.28,-11.28,0
13.909,-11.28,-11.28,0
13.929,-11.4,-11.4,0
13.949,-11.4,-11.28,0
13.969,-11.4,-11.28,0
13.989,-11.4,-11.4,1
14.009,-11.4,-11.28,1
14.029,-11.28,-11.4,1
14.049,-11.4,-11.4,1
14.069,-11.4,-11.4,1
14.089,-11.4,-11.4,1
14.109,-11.4,-11.4,1
14.129,-11.4,-11.4,1
14.149,-11.16,-10.91,1
14.169,-10.42,-10.06,1
14.189,-9.57,-8.22,1
14.209,-7.73,-6.88,1
14.229,-6.02,-6.02,1
14.249,-5.17,-5.17,1
14.249,-4.31,-4.56,1
14.269,-3.58,-4.19,1
14.289,-3.09,-3.7,1
14.309,-2.72,-3.46,1
14.33,-2.6,-3.21,0
14.349,-2.11,-3.09,0
14.369,-1.75,-2.72,0
14.39,-1.38,-2.6,0
14.41,-1.5,-2.48,0
14.429,-1.63,-2.36,0
14.449,-1.26,-2.24,0
14.469,-1.01,-2.24,0
14.489,-0.89,-2.11,0
14.509,-1.14,-2.11,0
14.53,-1.01,-1.87,0
14.55,-0.77,-1.99,0
14.569,-0.65,-1.87,0
14.589,-0.77,-1.87,0
14.61,-1.14,-1.99,0
14.629,-0.77,-1.99,0
14.649,-0.53,-1.87,0
14.669,-0.28,-1.87,0
14.69,-0.53,-1.75,0
14.709,-0.53,-1.75,0
14.729,-1.26,-2.6,0
14.75,-3.34,-4.44,0
14.77,-4.92,-6.88,0
14.789,-6.15,-9.2,0
14.81,-7.49,-10.18,0
14.829,-9.45,-10.54,0
14.849,-10.3,-10.79,0
14.869,-10.54,-10.91,0
14.889,-10.91,-11.03,0
14.909,-11.03,-11.16,0
14.93,-11.16,-11.16,0
14.949,-11.16,-11.28,0
14.969,-11.28,-11.28,0
14.989,-11.28,-11.16,0
15.009,-11.4,-11.28,0
15.03,-11.28,-11.28,0
15.049,-11.28,-11.28,0
15.069,-11.4,-11.28,0
15.089,-11.4,-11.28,0
15.11,-11.4,-11.28,0
15.13,-11.4,-11.28,0
15.15,-11.4,-11.28,1
15.169,-11.4,-11.28,1
15.19,-11.4,-11.4,1
15.212,-11.4,-11.28,1
15.229,-11.4,-11.4,1
15.254,-11.4,-11.28,1
15.27,-11.4,-11.4,1
15.292,-11.4,-11.4,1
15.311,-11.16,-11.03,1
15.329,-10.54,-10.42,1
15.352,-9.57,-8.96,1
15.375,-7.73,-7.37,1
15.391,-6.39,-6.27,1
15.409,-5.41,-5.54,1
15.434,-4.31,-4.92,1
15.451,-3.58,-4.44,1
15.475,-3.09,-3.95,1
15.491,-2.97,-3.58,1
15.512,-2.48,-3.34,0
15.532,-1.99,-3.21,0
15.557,-1.5,-2.97,0
15.573,-1.38,-2.6,0
15.592,-1.63,-2.6,0
15.612,-1.38,-2.48,0
15.633,-1.14,-2.36,0
15.652,-0.89,-2.36,0
15.674,-1.14,-2.24,0
15.691,-1.14,-2.11,0
15.715,-0.89,-2.11,0
15.731,-0.65,-1.99,0
15.751,-0.65,-1.99,0
15.772,-1.14,-1.99,0
15.792,-1.01,-1.99,0
15.814,-0.65,-1.99,0
15.831,-0.4,-1.87,0
15.855,-0.53,-1.75,0
15.856,-0.65,-1.75,0
15.876,-0.65,-1.63,0
15.897,-1.01,-2.11,0
15.921,-3.09,-3.95,0
15.938,-5.05,-6.02,0
15.96,-6.51,-8.71,0
15.979,-8.59,-9.93,0
15.996,-10.18,-10.42,0
16.02,-10.54,-10.79,0
16.037,-10.79,-10.91,0
16.06,-11.03,-11.03,0
16.078,-11.16,-11.16,0
16.097,-11.28,-11.16,0
16.12,-11.28,-11.28,0
16.136,-11.28,-11.28,0
16.161,-11.28,-11.28,0
16.178,-11.4,-11.28,0
16.198,-11.4,-11.28,0
16.219,-11.28,-11.28,0
16.238,-11.28,-11.28,0
16.26,-11.4,-11.28,0
16.281,-11.4,-11.4,0
16.301,-11.4,-11.28,1
16.326,-11.4,-11.4,1
16.343,-11.4,-11.4,1
16.406,-11.4,-11.28,1
16.406,-11.4,-11.28,1
16.409,-11.4,-11.28,1
16.422,-11.4,-11.4,1
16.442,-11.52,-11.4,1
16.461,-11.4,-11.4,1
16.483,-11.28,-11.03,1
16.507,-10.67,-10.42,1
16.525,-9.93,-8.71,1
16.542,-8.35,-7.12,1
16.566,-6.63,-6.27,1
16.582,-5.54,-5.41,1
16.602,-4.68,-4.8,1
16.625,-3.7,-4.31,1
16.641,-3.21,-3.82,1
16.666,-2.85,-3.58,1
16.667,-2.72,-3.34,0
16.691,-2.24,-3.09,0
16.708,-1.63,-2.85,0
16.728,-1.5,-2.72,0
16.75,-1.75,-2.48,0
16.768,-1.63,-2.48,0
16.791,-1.26,-2.48,0
16.809,-1.01,-2.24,0
16.83,-1.01,-2.36,0
16.848,-1.38,-2.11,0
16.873,-0.89,-2.11,0
16.889,-0.77,-2.11,0
16.908,-0.65,-1.99,0
16.93,-0.89,-1.99,0
16.947,-1.26,-2.11,0
16.968,-0.89,-1.99,0
16.989,-0.4,-1.99,0
17.008,-0.4,-1.87,0
17.028,-0.77,-1.75,0
17.047,-0.53,-1.75,0
17.071,-0.77,-1.99,0
17.095,-2.72,-3.95,0
17.112,-4.68,-5.9,0
17.132,-6.15,-8.59,0
17.152,-8.47,-9.81,0
17.176,-10.06,-10.42,0
17.193,-10.54,-10.67,0
17.212,-10.67,-10.91,0
17.231,-11.03,-11.03,0
17.251,-11.03,-11.03,0
17.271,-11.16,-11.16,0
17.291,-11.28,-11.16,0
17.311,-11.28,-11.28,0
17.331,-11.28,-11.28,0
17.352,-11.4,-11.16,0
17.371,-11.4,-11.28,0
17.392,-11.28,-11.28,0
17.412,-11.28,-11.28,0
17.431,-11.4,-11.28,0
17.451,-11.4,-11.28,0
17.472,-11.4,-11.28,0
17.472,-11.4,-11.28,1
17.492,-11.4,-11.4,1
17.512,-11.4,-11.4,1
17.532,-11.4,-11.4,1
17.553,-11.4,-11.28,1
17.572,-11.4,-11.28,1
17.592,-11.4,-11.4,1
17.612,-11.4,-11.4,1
17.632,-11.28,-11.16,1
17.652,-10.67,-10.54,1
17.672,-9.93,-8.96,1
17.692,-8.47,-7.37,1
17.712,-6.63,-6.39,1
17.732,-5.66,-5.54,1
17.752,-4.68,-4.8,1
17.772,-3.95,-4.31,1
17.793,-3.21,-3.95,1
17.813,-2.85,-3.58,1
17.832,-2.72,-3.46,1
17.852,-2.36,-3.21,0
17.872,-1.75,-2.97,0
17.872,-1.5,-2.72,0
17.892,-1.63,-2.6,0
17.913,-1.63,-2.36,0
17.933,-1.38,-2.36,0
17.953,-1.14,-2.24,0
17.973,-0.89,-2.36,0
17.992,-1.38,-2.24,0
18.013,-1.14,-2.11,0
18.033,-0.77,-2.11,0
18.052,-0.77,-2.11,0
18.073,-0.89,-1.99,0
18.093,-1.26,-2.11,0
18.112,-0.89,-2.11,0
18.132,-0.53,-1.99,0
18.153,-0.4,-1.87,0
18.173,-0.53,-1.87,0
18.193,-0.65,-1.75,0
18.213,-0.65,-1.75,0
18.232,-2.36,-3.46,0
18.252,-4.44,-5.29,0
18.273,-5.9,-7.86,0
18.294,-8.1,-9.69,0
18.314,-9.81,-10.3,0
18.334,-10.42,-10.67,0
18.354,-10.67,-10.79,0
18.374,-10.91,-10.91,0
18.393,-11.03,-11.03,0
18.414,-11.16,-11.16,0
18.433,-11.16,-11.16,0
18.454,-11.28,-11.16,0
18.473,-11.28,-11.16,0
18.494,-11.4,-11.28,0
18.514,-11.4,-11.28,0
18.534,-11.28,-11.28,0
18.554,-11.28,-11.28,0
18.574,-11.4,-11.28,0
18.594,-11.4,-11.28,0
18.614,-11.4,-11.28,0
18.633,-11.28,-11.28,1
18.696,-11.4,-11.28,1
18.717,-11.4,-11.28,1
18.736,-11.4,-11.28,1
18.757,-11.4,-11.4,1
18.777,-11.4,-11.4,1
18.797,-11.4,-11.4,1
18.817,-11.4,-11.4,1
18.837,-11.28,-11.28,1
18.857,-10.91,-10.67,1
18.877,-10.06,-9.2,1
18.897,-8.71,-7.61,1
18.917,-6.88,-6.51,1
18.937,-5.66,-5.54,1
18.957,-4.8,-4.92,1
18.976,-4.07,-4.44,1
18.997,-3.21,-3.95,1
19.017,-2.85,-3.58,1
19.036,-2.72,-3.34,0
19.057,-2.48,-3.09,0
19.077,-1.75,-2.97,0
19.097,-1.5,-2.72,0
19.097,-1.5,-2.6,0
19.118,-1.63,-2.6,0
19.138,-1.5,-2.36,0
19.157,-1.01,-2.36,0
19.178,-1.01,-2.48,0
19.198,-1.26,-2.24,0
19.221,-1.14,-2.24,0
19.243,-0.89,-2.11,0
19.259,-0.77,-1.99,0
19.279,-0.65,-2.11,0
19.301,-1.26,-2.11,0
19.318,-1.14,-1.99,0
19.342,-0.53,-1.99,0
19.359,-0.53,-1.99,0
19.382,-0.53,-1.75,0
19.4,-0.77,-1.75,0
19.418,-0.65,-1.75,0
19.442,-2.24,-3.21,0
19.458,-4.07,-4.8,0
19.482,-5.54,-6.76,0
19.498,-6.63,-8.22,0
19.523,-8.22,-9.69,0
19.54,-9.93,-10.3,0
19.559,-10.54,-10.67,0
19.581,-10.79,-10.91,0
19.605,-10.91,-11.03,0
19.621,-11.16,-11.03,0
19.643,-11.16,-11.16,0
19.662,-11.28,-11.16,0
19.679,-11.28,-11.16,0
19.699,-11.28,-11.28,0
19.72,-11.4,-11.28,0
19.743,-11.4,-11.28,0
19.762,-11.28,-11.28,0
19.779,-11.28,-11.28,0
19.803,-11.4,-11.28,0
19.82,-11.28,-11.28,0
19.844,-11.4,-11.28,0
19.86,-11.4,-11.28,1
19.886,-11.4,-11.4,1
19.903,-11.4,-11.4,1
19.903,-11.28,-11.28,1
19.926,-11.4,-11.28,1
19.944,-11.4,-11.4,1
19.963,-11.52,-11.4,1
19.985,-11.4,-11.28,1
20.003,-10.91,-10.79,1
20.026,-10.18,-9.81,1
20.046,-9.2,-8.22,1
20.067,-7.25,-6.88,1
20.083,-6.02,-5.78,1
20.108,-4.92,-5.17,1
20.124,-4.07,-4.44,1
20.144,-3.46,-4.07,1
20.166,-2.97,-3.82,1
20.184,-2.85,-3.46,0
20.207,-2.24,-3.21,0
20.223,-1.75,-2.97,0
20.248,-1.63,-2.72,0
20.264,-1.75,-2.72,0
20.286,-1.75,-2.48,0
20.305,-1.38,-2.36,0
20.325,-1.01,-2.48,0
20.347,-1.01,-2.36,0
20.365,-1.38,-2.11,0
20.388,-1.01,-2.11,0
20.407,-0.89,-1.99,0
20.426,-0.77,-1.99,0
20.446,-1.14,-2.11,0
20.465,-1.26,-2.11,0
20.487,-0.89,-1.87,0
20.505,-0.53,-1.87,0
20.528,-0.53,-1.75,0
20.552,-0.77,-1.75,0
20.569,-0.77,-1.87,0
20.585,-0.77,-1.75,0
20.605,-1.63,-2.72,0
20.626,-3.82,-4.68,0
20.65,-5.41,-7.37,0
20.667,-7.12,-9.45,0
20.686,-9.08,-10.3,0
20.708,-10.3,-10.54,0
20.708,-10.79,-10.79,0
20.732,-10.91,-11.03,0
20.749,-10.91,-11.03,0
20.774,-11.03,-11.16,0
20.79,-11.16,-11.16,0
20.808,-11.28,-11.16,0
20.843,-11.28,-11.28,0
20.849,-11.28,-11.28,0
20.87,-11.4,-11.28,0
20.891,-11.4,-11.28,0
20.908,-11.28,-11.28,0
20.934,-11.4,-11.4,0
20.95,-11.4,-11.28,0
20.975,-11.4,-11.28,0
20.992,-11.4,-11.28,0
21.008,-11.4,-11.28,1
21.033,-11.4,-11.4,1
21.05,-11.4,-11.4,1
21.069,-11.4,-11.4,1
21.089,-11.4,-11.28,1
21.11,-11.4,-11.4,1
21.11,-11.4,-11.4,1
21.131,-11.4,-11.4,1
21.15,-11.03,-10.91,1
21.175,-10.3,-10.06,1
21.192,-9.32,-8.47,1
21.21,-7.49,-7.0,1
21.231,-6.15,-6.02,1
21.25,-5.05,-5.17,1
21.27,-4.07,-4.68,1
21.291,-3.46,-4.19,1
21.311,-2.97,-3.82,1
21.333,-2.85,-3.58,0
21.35,-2.36,-3.21,0
21.37,-1.75,-2.97,0
21.39,-1.63,-2.85,0
21.411,-1.75,-2.6,0
21.431,-1.75,-2.48,0
21.451,-1.5,-2.48,0
21.47,-1.14,-2.36,0
21.491,-0.89,-2.36,0
21.51,-1.38,-2.24,0
21.51,-1.26,-2.11,0
21.531,-0.89,-2.11,0
21.551,-0.65,-1.99,0
21.571,-0.89,-1.99,0
21.591,-1.26,-2.11,0
21.61,-0.89,-1.99,0
21.631,-0.53,-1.87,0
21.651,-0.4,-1.87,0
21.67,-0.77,-1.75,0
21.691,-0.65,-1.75,0
21.711,-0.65,-1.75,0
21.73,-1.5,-2.6,0
21.751,-3.58,-4.44,0
21.771,-5.17,-6.63,0
21.791,-6.88,-9.08,0
21.811,-8.96,-10.18,0
21.83,-10.3,-10.54,0
21.851,-10.67,-10.79,0
21.87,-10.79,-10.91,0
21.891,-10.91,-11.03,0
21.911,-11.16,-11.16,0
21.911,-11.28,-11.16,0
21.931,-11.28,-11.28,0
21.951,-11.28,-11.16,0
21.972,-11.28,-11.28,0
21.991,-11.4,-11.28,0
22.012,-11.4,-11.28,0
22.031,-11.28,-11.28,0
22.051,-11.28,-11.28,0
22.071,-11.4,-11.28,0
22.091,-11.4,-11.28,0
22.111,-11.4,-11.28,0
22.131,-11.4,-11.4,1
22.152,-11.4,-11.4,1
22.171,-11.4,-11.28,1
22.191,-11.4,-11.28,1
22.211,-11.4,-11.4,1
22.231,-11.4,-11.4,1
22.251,-11.52,-11.4,1
22.271,-11.4,-11.4,1
22.291,-11.16,-10.91,1
22.311,-10.54,-9.93,1
22.331,-9.57,-8.35,1
22.351,-7.86,-7.0,1
22.372,-6.51,-6.02,1
22.391,-5.29,-5.17,1
22.412,-4.44,-4.68,1
22.431,-3.46,-4.19,1
22.451,-3.09,-3.82,1
22.472,-3.09,-3.46,0
22.492,-2.6,-3.34,0
22.511,-1.87,-2.97,0
22.531,-1.63,-2.85,0
22.551,-1.63,-2.6,0
22.572,-1.87,-2.48,0
22.591,-1.5,-2.48,0
22.611,-1.14,-2.36,0
22.631,-1.14,-2.24,0
22.651,-1.14,-2.24,0
22.671,-1.26,-2.11,0
22.691,-1.01,-1.99,0
22.711,-0.65,-1.99,0
22.711,-0.77,-2.11,0
22.731,-1.26,-1.99,0
22.752,-1.14,-2.11,0
22.772,-0.53,-1.99,0
22.792,-0.4,-1.87,0
22.812,-0.53,-1.87,0
22.832,-0.77,-1.75,0
22.852,-0.53,-1.75,0
22.871,-1.01,-2.36,0
22.892,-3.09,-4.07,0
22.912,-4.92,-5.66,0
22.931,-6.27,-8.35,0
22.952,-8.47,-9.81,0
22.972,-9.93,-10.42,0
22.992,-10.54,-10.67,0
23.012,-10.91,-10.91,0
23.032,-11.03,-11.03,0
23.051,-11.03,-11.16,0
23.071,-11.16,-11.28,0
23.091,-11.28,-11.28,0
23.125,-11.28,-11.28,0
23.126,-11.28,-11.28,0
23.147,-11.4,-11.16,0
23.166,-11.4,-11.28,0
23.187,-11.28,-11.28,0
23.207,-11.28,-11.28,0
23.227,-11.4,-11.28,0
23.253,-11.4,-11.28,0
23.27,-11.4,-11.28,0
23.286,-11.4,-11.28,0
23.308,-11.4,-11.28,1
23.328,-11.4,-11.28,1
23.347,-11.4,-11.28,1
23.368,-11.4,-11.4,1
23.386,-11.4,-11.28,1
23.409,-11.4,-11.4,1
23.429,-11.52,-11.28,1
23.45,-11.28,-11.03,1
23.467,-10.54,-10.3,1
23.491,-9.81,-8.71,1
23.508,-8.1,-7.25,1
23.527,-6.51,-6.15,1
23.527,-5.41,-5.29,1
23.548,-4.31,-4.68,1
23.567,-3.58,-4.19,1
23.59,-3.09,-3.82,1
23.607,-3.09,-3.7,0
23.631,-2.6,-3.34,0
23.648,-1.87,-3.09,0
23.673,-1.63,-2.85,0
23.691,-1.63,-2.6,0
23.709,-1.75,-2.6,0
23.729,-1.63,-2.48,0
23.754,-1.14,-2.36,0
23.77,-1.01,-2.36,0
23.788,-1.26,-2.24,0
23.812,-1.38,-2.11,0
23.829,-0.89,-2.11,0
23.848,-0.77,-1.99,0
23.871,-0.89,-1.99,0
23.888,-1.26,-2.11,0
23.907,-1.26,-1.99,0
23.93,-0.65,-1.87,0
23.955,-0.53,-1.87,0
23.972,-0.53,-1.75,0
23.99,-0.77,-1.75,0
24.011,-0.65,-1.87,0
24.03,-0.89,-2.11,0
24.054,-2.85,-3.58,0
24.07,-4.8,-5.05,0
24.094,-6.27,-6.15,0
24.11,-8.47,-7.61,0
24.135,-10.06,-9.57,0
24.151,-10.67,-10.3,0
24.176,-10.79,-10.67,0
24.193,-10.91,-10.91,0
24.211,-11.03,-11.03,0
24.23,-11.28,-11.03,0
24.25,-11.28,-11.16,0
24.275,-11.28,-11.28,0
24.291,-11.28,-11.16,0
24.311,-11.4,-11.28,0
24.33,-11.4,-11.28,0
24.355,-11.28,-11.28,0
24.371,-11.28,-11.28,0
24.391,-11.4,-11.28,0
24.411,-11.4,-11.28,0
24.436,-11.28,-11.28,0
24.453,-11.4,-11.4,0
24.472,-11.4,-11.28,0
24.495,-11.4,-11.28,0
24.511,-11.4,-11.28,1
24.536,-11.4,-11.28,1
24.553,-11.4,-11.4,1
24.575,-11.4,-11.28,1
24.595,-11.52,-11.4,1
24.611,-11.28,-11.16,1
24.631,-10.67,-10.54,1
24.654,-9.93,-8.96,1
24.671,-8.59,-7.37,1
24.695,-6.88,-6.02,1
24.712,-5.66,-5.29,1
24.736,-4.56,-4.68,1
24.761,-3.7,-4.19,0
24.777,-3.21,-3.95,0
24.802,-2.97,-3.58,0
24.818,-2.85,-3.21,0
24.836,-1.99,-2.97,0
24.859,-1.63,-2.72,0
24.883,-1.63,-2.6,0
24.9,-1.87,-2.6,0
24.917,-1.63,-2.48,0
24.937,-1.26,-2.24,0
24.958,-1.01,-2.36,0
24.978,-1.01,-2.11,0
24.999,-1.38,-2.11,0
25.017,-1.14,-2.11,0
25.037,-0.77,-2.11,0
25.057,-0.77,-2.11,0
25.077,-1.26,-1.99,0
25.098,-1.26,-1.87,0
25.117,-0.77,-1.87,0
25.137,-0.4,-1.87,0
25.137,-0.53,-1.75,0
25.159,-0.77,-1.87,0
25.179,-0.65,-1.99,0
25.197,-0.77,-1.75,0
25.22,-2.24,-3.58,0
25.238,-4.44,-5.41,0
25.261,-5.78,-8.1,0
25.278,-7.98,-9.69,0
25.298,-9.69,-10.42,0
25.319,-10.42,-10.79,0
25.338,-10.79,-10.91,0
25.36,-10.91,-11.03,0
25.378,-11.03,-11.16,0
25.401,-11.16,-11.16,0
25.418,-11.16,-11.16,0
25.437,-11.16,-11.28,0
25.459,-11.28,-11.28,0
25.484,-11.4,-11.28,0
25.498,-11.4,-11.28,0
25.524,-11.28,-11.28,0
25.537,-11.28,-11.28,0
25.537,-11.4,-11.28,0
25.557,-11.4,-11.28,0
25.578,-11.4,-11.4,0
25.599,-11.4,-11.28,0
25.623,-11.28,-11.28,0
25.637,-11.4,-11.28,0
25.66,-11.4,-11.4,1
25.68,-11.28,-11.4,1
25.705,-11.4,-11.28,1
25.722,-11.4,-11.4,1
25.737,-11.52,-11.4,1
25.763,-11.4,-11.28,1
25.779,-10.79,-10.67,1
25.804,-10.06,-9.69,1
25.821,-8.83,-7.86,1
25.838,-7.0,-6.39,1
25.857,-5.66,-5.54,1
25.879,-4.92,-4.8,1
25.897,-3.82,-4.44,0
25.921,-3.34,-4.07,0
25.938,-2.97,-3.58,0
25.938,-2.85,-3.34,0
25.962,-2.24,-3.09,0
25.98,-1.75,-2.85,0
26.003,-1.63,-2.72,0
26.019,-1.75,-2.6,0
26.038,-1.75,-2.48,0
26.06,-1.38,-2.48,0
26.082,-1.14,-2.24,0
26.1,-0.89,-2.24,0
26.118,-1.38,-2.11,0
26.138,-1.26,-1.99,0
26.159,-0.77,-2.11,0
26.183,-0.77,-2.11,0
26.2,-1.01,-1.99,0
26.224,-1.26,-1.99,0
26.239,-0.89,-1.87,0
26.259,-0.4,-1.75,0
26.282,-0.4,-1.87,0
26.298,-0.77,-1.87,0
26.323,-0.65,-1.75,0
26.339,-0.53,-1.87,0
26.339,-1.99,-3.21,0
26.36,-4.07,-5.05,0
26.381,-5.54,-7.73,0
26.405,-7.61,-9.57,0
26.421,-9.57,-10.3,0
26.439,-10.42,-10.67,0
26.462,-10.67,-11.03,0
26.487,-10.91,-11.03,0
26.5,-11.03,-11.16,0
26.519,-11.16,-11.16,0
26.539,-11.28,-11.16,0
26.561,-11.28,-11.28,0
26.58,-11.28,-11.28,0
26.6,-11.4,-11.28,0
26.619,-11.4,-11.28,0
26.639,-11.4,-11.28,0
26.66,-11.28,-11.28,0
26.685,-11.4,-11.28,0
26.702,-11.4,-11.28,0
26.72,-11.4,-11.28,0
26.74,-11.4,-11.28,0
26.76,-11.4,-11.4,0
26.783,-11.4,-11.28,0
26.807,-11.4,-11.28,1
26.823,-11.4,-11.28,1
26.841,-11.4,-11.4,1
26.86,-11.4,-11.4,1
26.881,-11.4,-11.28,1
26.906,-11.4,-11.28,1
26.922,-10.91,-10.67,1
26.94,-10.18,-9.69,1
26.961,-9.2,-7.86,1
26.981,-7.12,-6.51,1
27.005,-6.02,-5.54,1
27.021,-5.05,-4.92,1
27.04,-3.95,-4.44,1
27.063,-3.34,-3.95,0
27.08,-2.85,-3.7,0
27.104,-2.85,-3.21,0
27.121,-2.48,-2.97,0
27.14,-1.63,-2.97,0
27.161,-1.63,-2.72,0
27.187,-1.75,-2.6,0
27.201,-1.75,-2.6,0
27.221,-1.63,-2.48,0
27.24,-1.01,-2.24,0
27.262,-0.89,-2.24,0
27.287,-1.26,-2.11,0
27.303,-1.38,-1.99,0
27.321,-0.77,-2.11,0
27.34,-0.77,-2.24,0
27.362,-0.77,-1.99,0
27.381,-1.26,-1.99,0
27.401,-1.26,-1.87,0
27.426,-0.4,-1.87,0
27.441,-0.4,-1.87,0
27.46,-0.65,-1.87,0
27.484,-0.77,-1.87,0
27.501,-0.65,-1.87,0
27.526,-1.63,-2.97,0
27.541,-3.82,-4.56,0
27.541,-5.54,-6.39,0
27.561,-7.25,-8.96,0
27.582,-9.32,-10.06,0
27.601,-10.42,-10.54,0
27.622,-10.67,-10.79,0
27.641,-10.91,-10.91,0
27.662,-11.03,-11.03,0
27.681,-11.16,-11.16,0
27.701,-11.28,-11.28,0
27.727,-11.16,-11.28,0
27.752,-11.28,-11.28,0
27.77,,,
27.782,-11.4,-11.28,0
27.802,-11.4,-11.28,0
27.821,-11.4,-11.28,0
27.846,-11.28,-11.28,0
27.869,-11.28,-11.28,0
27.894,-11.4,-11.28,0
27.92,-11.4,-11.28,0
27.935,,,
27.942,,,
27.964,-11.28,-11.4,0
27.982,-11.4,-11.4,0
28.003,-11.4,-11.28,0
28.022,-11.4,-11.28,0
28.042,-11.4,-11.4,1
28.062,-11.4,-11.4,1
28.083,,,
28.106,-11.4,-11.4,1
28.122,-11.4,-11.4,1
28.142,-11.4,-11.28,1
28.163,-11.03,-10.91,1
28.182,-10.3,-10.18,1
28.205,-9.32,-8.59,1
28.227,-7.37,-7.0,1
28.247,,,
28.262,-6.02,-5.9,1
28.285,-5.17,-5.17,1
28.303,-4.19,-4.56,1
28.326,-3.34,-4.31,0
28.342,-2.97,-3.95,0
28.354,-2.85,-3.46,0
28.375,,,
28.394,-2.48,-3.21,0
28.417,-1.75,-2.85,0
28.441,-1.63,-2.72,0
28.457,-1.5,-2.72,0
28.475,-1.75,-2.6,0
28.495,-1.63,-2.36,0
28.514,-1.14,-2.36,0
28.536,-1.01,-2.24,0
28.555,-1.14,-2.11,0
28.577,,,
28.597,-1.38,-2.11,0
28.615,-1.01,-2.11,0
28.637,-0.77,-2.11,0
28.654,-0.89,-2.11,0
28.676,-1.26,-1.99,0
28.694,-1.26,-1.87,0
28.715,-0.65,-1.87,0
28.735,-0.53,-1.75,0
28.755,-0.4,-1.75,0
28.776,-0.89,-1.87,0
28.8,-0.77,-1.75,0
28.816,-1.5,-2.72,0
28.837,-3.58,-4.68,0
28.861,-5.29,-7.12,0
28.877,-6.51,-9.45,0
28.906,-8.83,-10.18,0
28.926,-10.18,-10.67,0
28.95,-10.67,-10.91,0
28.976,-10.79,-11.03,0
29.0,-10.91,-11.16,0
29.025,-11.16,-11.16,0
29.045,,,
29.045,,,
29.055,-11.16,-11.16,0
29.076,-11.16,-11.16,0
29.095,-11.16,-11.28,0
29.12,-11.28,-11.28,0
29.144,-11.4,-11.28,0
29.162,-11.4,-11.4,0
29.193,-11.28,-11.28,0
29.213,,,
29.223,-11.28,-11.28,0
29.243,-11.4,-11.28,0
29.263,-11.4,-11.4,0
29.287,-11.28,-11.28,0
29.312,-11.4,-11.28,0
29.336,-11.4,-11.28,0
29.357,,,
29.363,-11.4,-11.4,1
29.382,,,
29.403,-11.4,-11.4,1
29.422,-11.28,-11.4,1
29.443,-11.4,-11.4,1
29.463,-11.4,-11.4,1
29.483,-11.4,-11.4,1
29.504,-11.03,-10.91,1
29.525,,,
29.543,-10.42,-10.06,1
29.562,-9.45,-8.22,1
29.575,-7.49,-6.76,1
29.595,-6.15,-5.66,1
29.615,,,
29.635,-5.29,-5.05,1
29.655,-4.31,-4.56,1
29.675,-3.46,-4.19,0
29.696,-2.97,-3.82,0
29.715,-2.85,-3.34,0
29.736,-2.72,-3.09,0
29.755,-1.75,-2.97,0
29.775,-1.63,-2.72,0
29.795,-1.63,-2.6,0
29.815,,,
29.835,-1.87,-2.6,0
29.855,-1.75,-2.36,0
29.875,-1.01,-2.36,0
29.895,-1.01,-2.24,0
29.915,-1.14,-2.11,0
29.935,-1.26,-2.24,0
29.955,-0.89,-2.11,0
29.975,-0.77,-2.11,0
29.988,-0.77,-2.11,0
30.008,,,
30.029,-1.14,-2.11,0
30.049,-1.38,-1.87,0
30.069,-0.4,-1.87,0
30.089,-0.4,-1.75,0
30.109,-0.65,-1.75,0
30.128,-0.77,-1.99,0
30.149,-0.77,-1.87,0
30.169,-1.26,-2.6,0
30.188,-3.46,-4.31,0
30.208,,,
30.229,-5.17,-5.78,0
30.248,-6.63,-8.1,0
30.269,-8.96,-9.69,0
30.288,-10.18,-10.42,0
30.309,-10.67,-10.79,0
30.328,-10.79,-10.91,0
30.349,-10.91,-11.03,0
30.369,-11.16,-11.16,0
30.393,-11.16,-11.16,0
30.417,-11.28,-11.16,0
30.438,,,
30.453,-11.16,-11.16,0
30.474,-11.4,-11.28,0
30.493,-11.4,-11.28,0
30.513,-11.4,-11.16,0
30.537,-11.28,-11.28,0
30.561,-11.4,-11.28,0
30.581,,,
30.593,-11.4,-11.28,0
30.613,-11.4,-11.28,0
30.633,-11.28,-11.4,0
30.655,-11.28,-11.28,0
30.68,-11.4,-11.4,0
30.705,-11.4,-11.4,0
30.729,-11.28,-11.4,1
30.75,,,
30.753,,,
30.774,-11.4,-11.4,1
30.794,-11.4,-11.4,1
30.799,-11.4,-11.4,1
30.823,-11.4,-11.4,1
30.848,-11.16,-11.03,1
30.873,-10.42,-10.3,1
30.896,-9.57,-8.83,1
30.917,-7.86,-7.12,1
30.938,-6.27,-6.02,1
30.963,-5.29,-5.29,1
30.983,-4.56,-4.68,0
31.003,-3.46,-4.31,0
31.029,-3.09,-3.82,0
31.048,-2.85,-3.46,0
31.069,-2.6,-3.21,0
31.094,-1.99,-2.97,0
31.114,-1.63,-2.72,0
31.135,-1.5,-2.72,0
31.158,-1.75,-2.48,0
31.18,-1.75,-2.48,0
31.201,,,
31.221,-1.01,-2.36,0
31.241,-1.01,-2.24,0
31.262,-1.01,-2.11,0
31.281,-1.26,-2.11,0
31.302,-1.26,-1.99,0
31.321,-0.65,-2.11,0
31.341,-0.77,-2.11,0
31.361,-1.01,-1.87,0
31.381,-1.26,-1.99,0
31.401,-0.77,-1.87,0
31.421,-0.53,-1.75,0
31.442,-0.4,-1.87,0
31.463,,,
31.481,-0.89,-1.87,0
31.501,-0.77,-1.75,0
31.521,-1.01,-2.24,0
31.542,-3.09,-4.07,0
31.561,-5.05,-5.66,0
31.582,-6.39,-6.88,0
31.601,-8.71,-9.08,0
31.618,-10.18,-10.18,0
31.643,-10.54,-10.67,0
31.663,,,
31.679,-10.79,-10.91,0
31.698,-10.91,-11.03,0
31.718,-11.16,-11.03,0
31.738,-11.28,-11.16,0
31.761,-11.28,-11.16,0
31.785,-11.28,-11.28,0
31.81,-11.28,-11.28,0
31.831,,,
31.838,-11.4,-11.28,0
31.858,-11.4,-11.28,0
31.88,-11.28,-11.28,0
31.905,-11.4,-11.28,0
31.929,-11.4,-11.28,0
31.953,-11.4,-11.28,0
31.974,,,
31.978,,,
31.999,-11.28,-11.28,0
32.019,-11.28,-11.4,0
32.039,-11.4,-11.28,0
32.059,-11.4,-11.28,0
32.079,-11.28,-11.28,0
32.099,-11.28,-11.4,1
32.122,-11.4,-11.4,1
32.142,,,
32.159,-11.52,-11.4,1
32.179,-11.4,-11.4,1
32.199,-11.16,-11.03,1
32.219,-10.54,-10.3,1
32.24,-9.81,-8.47,1
32.261,-8.1,-7.0,1
32.282,,,
32.299,-6.39,-5.9,1
32.319,-5.41,-5.17,0
32.339,-4.68,-4.8,0
32.359,-3.7,-4.19,0
32.379,-3.09,-3.7,0
32.399,-2.85,-3.46,0
32.419,-2.72,-3.09,0
32.44,-2.36,-2.85,0
32.46,-1.63,-2.85,0
32.483,-1.63,-2.6,0
32.503,-1.63,-2.6,0
32.523,-1.87,-2.48,0
32.547,-1.5,-2.24,0
32.568,-1.01,-2.24,0
32.589,-1.01,-2.24,0
32.612,-1.26,-2.11,0
32.633,-1.26,-2.24,0
32.654,-0.77,-2.11,0
32.678,-0.89,-1.99,0
32.699,-1.01,-1.99,0
32.72,,,
32.72,,,
32.74,-1.26,-1.87,0
32.76,-1.14,-1.87,0
32.78,-0.53,-1.87,0
32.8,-0.53,-1.87,0
32.819,-0.65,-1.75,0
32.83,-0.89,-1.75,0
32.851,,,
32.871,-0.89,-1.87,0
32.891,-2.72,-3.95,0
32.911,-4.8,-5.9,0
32.931,-6.15,-8.71,0
32.958,-8.35,-10.06,0
32.971,-10.06,-10.54,0
32.991,-10.54,-10.79,0
33.011,-10.79,-11.03,0
33.035,-10.91,-11.03,0
33.059,-11.16,-11.16,0
33.08,,,
33.091,-11.28,-11.16,0
33.111,-11.28,-11.16,0
33.131,-11.28,-11.28,0
33.153,-11.4,-11.28,0
33.179,-11.4,-11.28,0
33.203,-11.4,-11.28,0
33.228,-11.28,-11.28,0
33.249,,,
33.269,-11.28,-11.28,0
33.289,-11.4,-11.28,0
33.309,-11.4,-11.28,0
33.329,-11.4,-11.4,0
33.349,-11.4,-11.4,0
33.371,-11.4,-11.28,0
33.395,-11.4,-11.28,0
33.416,,,
33.429,-11.4,-11.28,0
33.449,-11.4,-11.4,1
33.469,-11.52,-11.4,1
33.489,-11.4,-11.4,1
33.514,-11.4,-11.4,1
33.539,-11.28,-11.16,1
33.559,,,
33.569,-10.67,-10.42,1
33.59,-9.93,-8.83,1
33.609,-8.59,-7.12,1
33.629,-6.63,-6.02,1
33.65,,,
33.67,-5.54,-5.29,0
33.69,-4.8,-4.68,0
33.711,-3.7,-4.19,0
33.731,-3.21,-3.7,0
33.751,-2.85,-3.34,0
33.77,-2.48,-3.09,0
33.79,-2.24,-2.72,0
33.811,-1.5,-2.6,0
33.83,-1.26,-2.6,0
33.851,-1.38,-2.36,0
33.871,-1.38,-2.11,0
33.891,-1.26,-1.99,0
33.911,,,
33.93,-0.77,-1.87,0
33.95,-0.53,-1.75,0
33.971,-0.77,-1.87,0
33.99,-0.89,-1.75,0
34.01,-0.28,-1.75,0
34.03,-0.28,-1.63,0
34.05,-0.53,-1.38,0
34.07,-0.65,-1.38,0
34.091,-0.77,-1.38,0
34.111,,,
34.13,0.09,-1.26,0
34.15,0.09,-1.38,0
34.17,-0.04,-1.38,0
34.19,-0.28,-1.26,0
34.21,-0.28,-1.26,0
34.231,-1.63,-2.97,0
34.251,-3.95,-4.68,0
34.271,-5.41,-5.9,0
34.291,-7.61,-7.12,0
34.31,-9.69,-9.08,0
34.33,-10.42,-10.18,0
34.351,-10.79,-10.67,0
34.374,-10.91,-10.91,0
34.399,-11.16,-11.16,0
34.424,-11.28,-11.28,0
34.447,-11.4,-11.28,0
34.469,,,
34.489,-11.4,-11.28,0
34.51,-11.4,-11.28,0
34.53,-11.52,-11.4,0
34.549,-11.4,-11.4,0
34.57,-11.4,-11.4,0
34.591,-11.52,-11.4,0
34.616,-11.52,-11.4,0
34.637,,,
34.65,-11.52,-11.4,0
34.669,-11.52,-11.4,0
34.69,-11.52,-11.4,0
34.71,-11.52,-11.4,0
34.735,-11.52,-11.52,0
34.76,-11.52,-11.4,0
34.78,,,
34.791,-11.4,-11.4,0
34.81,-11.52,-11.4,0
34.83,-11.52,-11.4,1
34.854,-11.52,-11.4,1
34.878,-11.52,-11.4,1
34.903,-11.03,-10.79,1
34.927,-10.42,-9.57,1
34.948,-9.69,-7.73,1
34.973,-7.86,-6.39,0
34.993,-6.15,-5.41,0
35.013,-5.29,-4.8,0
35.038,-4.56,-4.07,0
35.058,-3.46,-3.58,0
35.079,-2.97,-3.34,0
35.104,-2.72,-3.09,0
35.124,-2.48,-2.85,0
35.144,-1.87,-2.72,0
35.169,-1.38,-2.48,0
35.19,-1.26,-2.24,0
35.21,-1.26,-2.11,0
35.235,-1.5,-1.99,0
35.255,-1.01,-1.99,0
35.276,,,
35.276,,,
35.279,,,
35.299,-0.65,-1.99,0
35.319,-0.65,-1.87,0
35.339,-0.77,-1.75,0
35.36,-0.89,-1.75,0
35.379,-0.28,-1.63,0
35.399,-0.28,-1.5,0
35.419,-0.53,-1.5,0
35.439,-0.77,-1.5,0
35.459,-0.53,-1.38,0
35.479,-0.04,-1.38,0
35.499,-0.04,-1.26,0
35.519,-0.04,-1.38,0
35.539,,,
35.559,-0.4,-1.38,0
35.58,-1.38,-2.6,0
35.599,-3.58,-4.8,0
35.619,-5.29,-7.73,0
35.639,-7.37,-9.69,0
35.659,-9.45,-10.42,0
35.679,-10.3,-10.79,0
35.7,-10.67,-11.03,0
35.719,,,
35.739,-10.91,-11.16,0
35.759,-11.16,-11.16,0
35.779,-11.28,-11.28,0
35.8,-11.4,-11.28,0
35.819,-11.28,-11.4,0
35.84,-11.4,-11.4,0
35.861,,,
35.879,-11.4,-11.4,0
35.899,-11.4,-11.4,0
35.919,-11.4,-11.4,0
35.94,-11.52,-11.4,0
35.959,-11.52,-11.4,0
35.984,-11.4,-11.4,0
36.009,-11.4,-11.4,0
36.029,,,
36.039,-11.52,-11.4,0
36.059,-11.52,-11.4,0
36.079,-11.52,-11.4,0
36.102,-11.52,-11.4,0
36.127,-11.52,-11.4,0
36.151,-11.52,-11.4,0
36.173,,,
36.183,-11.52,-11.4,0
36.203,-11.52,-11.52,1
36.223,-11.4,-11.4,1
36.246,-11.16,-10.91,1
36.27,-10.42,-9.69,1
36.291,,,
36.303,-9.57,-7.98,1
36.323,-7.61,-6.51,0
36.343,-6.02,-5.66,0
36.363,-5.17,-4.8,0
36.383,-4.44,-4.19,0
36.403,-3.46,-3.82,0
36.423,,,
36.443,-2.97,-3.34,0
36.463,-2.6,-3.09,0
36.483,-2.36,-2.85,0
36.503,-2.11,-2.6,0
36.524,-1.26,-2.48,0
36.543,-1.26,-2.24,0
36.564,-1.26,-2.11,0
36.584,-1.38,-1.99,0
36.603,-1.14,-1.99,0
36.624,-0.65,-1.87,0
36.644,-0.53,-1.87,0
36.664,-0.65,-1.75,0
36.689,-0.89,-1.63,0
36.708,-0.28,-1.63,0
36.729,-0.28,-1.5,0
36.755,-0.4,-1.5,0
36.774,-0.65,-1.63,0
36.794,,,
36.804,-0.65,-1.38,0
36.824,0.09,-1.38,0
36.844,0.09,-1.5,0
36.864,-0.16,-1.38,0
36.883,-0.4,-1.26,0
36.903,,,
36.923,-1.01,-2.36,0
36.943,-3.09,-4.31,0
36.964,-4.92,-6.39,0
36.984,-6.63,-9.08,0
37.004,-9.08,-10.18,0
37.024,-10.06,-10.67,0
37.044,-10.54,-10.91,0
37.064,-10.79,-11.03,0
37.086,-11.16,-11.28,0
37.11,-11.28,-11.28,0
37.135,-11.28,-11.28,0
37.156,,,
37.164,-11.28,-11.28,0
37.184,,,
37.204,-11.4,-11.4,0
37.224,-11.4,-11.28,0
37.244,-11.4,-11.28,0
37.265,-11.4,-11.4,0
37.283,-11.4,-11.4,0
