Time (s),Pressure 1 (kPa),Pressure 2 (kPa),Switch State
0.118,-7.61,-7.86,1
0.138,-7.61,-7.86,1
0.158,-7.49,-7.86,1
0.178,-7.49,-7.86,1
0.198,-7.49,-7.86,1
0.218,-7.49,-7.86,1
0.238,-7.61,-7.86,1
0.258,-7.49,-7.86,1
0.279,-7.49,-7.86,1
0.299,-7.61,-7.86,1
0.318,-7.49,-7.86,1
0.339,-7.49,-7.86,1
0.358,-7.61,-7.86,1
0.378,-7.61,-7.86,1
0.398,-7.49,-7.86,1
0.418,-7.49,-7.86,1
0.438,-7.49,-7.86,1
0.459,-7.49,-7.86,1
0.478,-7.61,-7.86,1
0.498,-7.49,-7.86,1
0.518,-7.49,-7.86,1
0.538,-7.61,-7.86,1
0.558,-7.49,-7.86,1
0.579,-7.61,-7.86,1
0.599,-7.49,-7.86,1
0.619,-7.49,-7.86,1
0.639,-7.61,-7.86,1
0.658,-7.49,-7.86,1
0.678,-7.49,-7.86,1
0.699,-7.61,-7.86,1
0.718,-7.49,-7.86,1
0.738,-7.49,-7.86,1
0.759,-7.61,-7.86,1
0.779,-7.61,-7.86,1
0.798,-7.49,-7.86,1
0.819,-7.61,-7.86,1
0.838,-7.49,-7.86,1
0.858,-7.61,-7.86,1
0.878,-7.49,-7.86,1
0.898,-7.49,-7.86,1
0.919,-7.49,-7.86,1
0.919,-7.49,-7.86,1
0.94,-7.49,-7.86,1
0.96,-7.61,-7.86,1
0.98,-7.49,-7.86,1
1.0,-7.61,-7.86,1
1.02,-7.61,-7.86,1
1.04,-7.49,-7.86,1
1.06,-7.49,-7.86,1
1.08,-7.49,-7.86,1
1.1,-7.49,-7.86,1
1.127,-7.49,-7.86,1
1.14,-7.49,-7.86,1
1.16,-7.61,-7.86,1
1.18,-7.61,-7.86,1
1.2,-7.49,-7.86,1
1.22,-7.49,-7.86,1
1.239,-7.61,-7.86,1
1.26,-7.49,-7.86,1
1.279,-7.49,-7.86,1
1.3,-7.61,-7.86,1
1.32,-7.61,-7.86,1
1.341,-7.61,-7.86,1
1.361,-7.49,-7.86,1
1.381,-7.49,-7.86,1
1.4,-7.61,-7.98,1
1.42,-7.49,-7.86,1
1.441,-7.61,-7.86,1
1.461,-7.61,-7.86,1
1.481,-7.49,-7.86,1
1.501,-7.61,-7.86,1
1.521,-7.49,-7.86,1
1.541,-7.49,-7.86,1
1.561,-7.49,-7.86,1
1.581,-7.49,-7.86,1
1.601,-7.49,-7.86,1
1.62,-7.49,-7.86,1
1.641,-7.49,-7.86,1
1.66,-7.61,-7.86,1
1.681,-7.49,-7.86,1
1.701,-7.49,-7.86,1
1.721,-7.61,-7.86,1
1.742,-7.61,-7.98,1
1.762,-7.61,-7.86,1
1.781,-7.49,-7.86,1
1.801,-7.49,-7.98,1
1.822,-7.49,-7.86,1
1.842,-7.49,-7.86,1
1.862,-7.49,-7.86,1
1.881,-7.61,-7.86,1
1.902,-7.49,-7.86,1
1.922,-7.61,-7.86,1
1.942,-7.49,-7.86,1
1.961,-7.49,-7.86,1
1.982,-7.61,-7.86,1
2.002,-7.61,-7.86,1
2.022,-7.49,-7.86,1
2.042,-7.49,-7.86,1
2.061,-7.61,-7.86,1
2.082,-7.49,-7.86,1
2.102,-7.61,-7.86,1
2.122,-7.61,-7.98,1
2.143,-7.61,-7.86,1
2.163,-7.49,-7.86,1
2.183,-7.61,-7.86,1
2.203,-7.49,-7.86,1
2.223,-7.49,-7.86,1
2.243,-7.61,-7.86,1
2.263,-7.49,-7.86,1
2.283,-7.49,-7.86,1
2.303,-7.49,-7.86,1
2.322,-7.49,-7.86,1
2.343,-7.61,-7.86,1
2.363,-7.49,-7.86,1
2.383,-7.49,-7.86,1
2.402,-7.61,-7.98,1
2.422,-7.61,-7.86,1
2.443,-7.49,-7.86,1
2.463,-7.61,-7.86,1
2.483,-7.61,-7.86,1
2.503,-7.49,-7.86,1
2.522,-7.61,-7.86,1
2.522,-7.61,-7.86,1
2.543,-7.49,-7.86,1
2.563,-7.49,-7.86,1
2.583,-7.61,-7.86,1
2.603,-7.49,-7.86,1
2.623,-7.49,-7.86,1
2.643,-7.61,-7.86,1
2.663,-7.49,-7.86,1
2.683,-7.49,-7.86,1
2.703,-7.49,-7.86,1
2.723,-7.49,-7.86,1
2.743,-7.49,-7.86,1
2.762,-7.49,-7.86,1
2.783,-7.49,-7.86,1
2.803,-7.61,-7.86,1
2.823,-7.49,-7.86,1
2.843,-7.61,-7.86,1
2.863,-7.49,-7.86,1
2.883,-7.61,-7.86,1
2.903,-7.61,-7.86,1
2.923,-7.49,-7.86,1
2.943,-7.49,-7.86,1
2.964,-7.61,-7.86,1
2.983,-7.61,-7.86,1
3.003,-7.49,-7.86,1
3.023,-7.49,-7.86,1
3.043,-7.61,-7.86,1
3.063,-7.61,-7.86,1
3.083,-7.49,-7.86,1
3.103,-7.61,-7.86,1
3.123,-7.49,-7.86,1
3.143,-7.49,-7.86,1
3.163,-7.61,-7.86,1
3.183,-7.49,-7.86,1
3.203,-7.49,-7.86,1
3.223,-7.49,-7.86,1
3.243,-7.49,-7.86,1
3.263,-7.49,-7.86,1
3.283,-7.49,-7.86,1
3.303,-7.49,-7.86,1
3.323,-7.61,-7.86,1
3.323,-7.49,-7.86,1
3.344,-7.61,-7.86,1
3.364,-7.49,-7.98,1
3.384,-7.49,-7.86,1
3.404,-7.49,-7.86,1
3.423,-7.61,-7.86,1
3.444,-7.61,-7.86,1
3.464,-7.49,-7.86,1
3.484,-7.49,-7.86,1
3.504,-7.61,-7.86,1
3.524,-7.49,-7.86,1
3.543,-7.61,-7.86,1
3.563,-7.49,-7.86,1
3.584,-7.49,-7.86,1
3.604,-7.61,-7.86,1
3.624,-7.49,-7.86,1
3.643,-7.61,-7.98,1
3.664,-7.49,-7.86,1
3.684,-7.61,-7.86,1
3.704,-7.49,-7.86,1
3.724,-7.61,-7.86,1
3.744,-7.49,-7.98,1
3.764,-7.61,-8.35,1
3.784,-7.49,-8.83,1
3.804,-7.49,-8.71,1
3.831,-7.61,-8.59,1
3.844,-7.49,-8.35,1
3.864,-7.49,-8.22,1
3.884,-7.61,-8.1,1
3.904,-7.61,-8.1,1
3.924,-7.61,-8.1,1
3.944,-7.49,-7.98,1
3.964,-7.49,-7.98,1
3.984,-7.61,-7.98,1
4.004,-7.49,-7.98,1
4.024,-7.61,-7.98,1
4.044,-7.49,-7.86,1
4.064,-7.49,-7.86,1
4.084,-7.61,-7.98,1
4.105,-7.49,-7.98,1
4.13,-7.49,-7.86,1
4.151,-7.49,-7.86,1
4.171,-7.49,-7.98,1
4.19,-7.49,-7.98,1
4.211,-7.49,-7.86,1
4.231,-7.61,-7.86,1
4.25,-7.61,-7.86,1
4.27,-7.61,-7.86,1
4.29,-7.61,-7.86,1
4.311,-7.61,-7.86,1
4.331,-7.61,-7.98,1
4.351,-7.49,-7.86,1
4.371,-7.49,-7.86,1
4.391,-7.61,-7.86,1
4.411,-7.49,-7.86,1
4.43,-7.49,-7.86,1
4.451,-7.49,-7.86,1
4.47,-7.49,-7.86,1
4.49,-7.61,-7.86,1
4.511,-7.49,-7.86,1
4.531,-7.49,-7.86,1
4.531,-7.49,-7.86,1
4.551,-7.49,-7.86,1
4.571,-7.61,-7.86,1
4.591,-7.49,-7.86,1
4.612,-7.61,-7.86,1
4.631,-7.49,-7.86,1
4.652,-7.25,-7.73,1
4.671,-6.27,-7.49,1
4.692,-5.54,-7.0,1
4.712,-5.17,-6.63,1
4.732,-5.05,-6.39,1
4.751,-5.05,-5.9,1
4.772,-5.05,-5.66,1
4.792,-4.56,-5.54,1
4.811,-4.19,-5.41,1
4.832,-4.07,-5.29,1
4.852,-4.07,-5.17,1
4.872,-4.19,-5.05,1
4.891,-4.19,-5.05,1
4.912,-4.19,-5.05,1
4.932,-4.19,-5.05,1
4.932,-4.07,-5.05,1
4.952,-3.95,-4.92,0
4.972,-4.07,-4.92,0
4.993,-4.07,-4.92,0
5.013,-3.95,-4.92,0
5.033,-3.82,-4.92,0
5.052,-3.95,-4.8,0
5.072,-3.95,-4.8,0
5.092,-3.82,-4.8,0
5.113,-3.82,-4.8,0
5.132,-3.82,-4.68,0
5.152,-3.95,-4.68,0
5.173,-3.95,-4.8,0
5.193,-3.95,-4.8,0
5.213,-3.95,-4.8,0
5.232,-3.95,-4.8,0
5.253,-3.95,-4.8,0
5.273,-3.82,-4.8,0
5.292,-3.82,-4.8,0
5.312,-3.82,-4.8,0
5.333,-3.82,-4.8,0
5.353,-3.82,-4.68,0
5.373,-3.82,-4.68,0
5.393,-3.95,-4.68,0
5.413,-3.95,-4.68,0
5.433,-3.82,-4.68,0
5.453,-3.82,-4.8,0
5.473,-3.82,-4.8,0
5.493,-3.82,-4.8,0
5.513,-3.82,-4.68,0
5.533,-3.82,-4.68,0
5.553,-3.7,-4.68,0
5.573,-3.7,-4.68,0
5.594,-3.7,-4.68,0
5.613,-3.7,-4.56,0
5.633,-3.58,-4.56,0
5.653,-3.7,-4.68,0
5.674,-3.7,-4.68,0
5.693,-3.82,-4.8,0
5.713,-4.92,-5.78,0
5.733,-5.9,-6.63,0
5.753,-6.51,-7.37,0
5.773,-6.88,-8.59,0
5.793,-7.49,-9.2,0
5.813,-8.47,-9.57,0
5.833,-9.08,-9.81,0
5.854,-9.45,-9.81,0
5.874,-9.57,-9.93,0
5.894,-9.57,-9.93,0
5.913,-9.81,-9.93,0
5.934,-9.81,-9.93,0
5.953,-9.93,-10.06,0
5.974,-9.93,-10.06,0
5.993,-10.06,-10.06,0
6.014,-10.06,-10.06,0
6.033,-9.93,-10.18,0
6.054,-10.06,-10.18,0
6.074,-10.06,-10.18,0
6.093,-10.18,-10.06,0
6.114,-10.18,-10.18,0
6.133,-10.06,-10.06,0
6.133,-10.06,-10.06,0
6.153,-10.06,-10.06,0
6.173,-10.06,-10.06,0
6.193,-10.06,-10.06,0
6.213,-10.06,-10.18,0
6.233,-10.06,-10.18,0
6.253,-10.06,-10.18,0
6.274,-10.06,-10.18,0
6.293,-10.18,-10.18,0
6.313,-10.06,-10.18,0
6.334,-10.18,-10.18,0
6.353,-10.18,-10.18,0
6.374,-10.18,-10.18,0
6.394,-10.18,-10.18,0
6.413,-10.18,-10.06,0
6.433,-10.18,-10.18,1
6.454,-10.06,-10.18,1
6.474,-10.06,-10.18,1
6.494,-10.18,-10.3,1
6.514,-10.18,-10.18,1
6.534,-10.18,-10.18,1
6.554,-10.18,-10.18,1
6.574,-10.18,-10.3,1
6.594,-10.3,-10.18,1
6.614,-10.3,-10.3,1
6.634,-10.18,-10.18,1
6.654,-10.18,-10.18,1
6.674,-10.18,-10.18,1
6.694,-10.18,-10.18,1
6.714,-9.69,-9.69,1
6.734,-9.2,-9.2,1
6.754,-8.71,-8.47,1
6.774,-8.22,-7.73,1
6.794,-7.73,-7.12,1
6.814,-7.0,-6.63,1
6.834,-6.39,-6.27,1
6.855,-5.9,-5.9,1
6.875,-5.29,-5.78,1
6.894,-4.92,-5.54,1
6.914,-4.68,-5.41,1
6.934,-4.68,-5.29,1
6.955,-4.68,-5.29,1
6.975,-4.56,-5.17,1
6.995,-4.56,-5.17,1
7.015,-4.56,-5.17,1
7.035,-4.44,-5.05,1
7.055,-4.19,-5.05,0
7.076,-4.07,-5.05,0
7.095,-3.95,-5.05,0
7.115,-3.82,-4.92,0
7.135,-3.95,-4.92,0
7.155,-4.07,-4.92,0
7.175,-4.07,-4.92,0
7.196,-4.07,-4.8,0
7.215,-3.95,-4.8,0
7.235,-3.82,-4.8,0
7.255,-3.82,-4.8,0
7.275,-3.95,-4.8,0
7.295,-3.95,-4.8,0
7.315,-4.07,-4.8,0
7.335,-4.07,-4.8,0
7.335,-3.95,-4.8,0
7.355,-3.7,-4.8,0
7.375,-3.7,-4.8,0
7.395,-3.7,-4.8,0
7.415,-3.7,-4.8,0
7.435,-3.82,-4.8,0
7.456,-3.95,-4.68,0
7.475,-3.95,-4.68,0
7.495,-3.95,-4.68,0
7.515,-3.82,-4.8,0
7.536,-3.82,-4.8,0
7.555,-3.82,-4.8,0
7.575,-3.82,-4.8,0
7.595,-3.82,-4.8,0
7.616,-3.82,-4.8,0
7.635,-3.82,-4.8,0
7.655,-3.82,-4.68,0
7.675,-3.7,-4.68,0
7.695,-3.58,-4.68,0
7.715,-3.58,-4.56,0
7.735,-3.58,-4.68,0
7.735,-3.7,-4.8,0
7.755,-3.95,-5.05,0
7.775,-5.17,-6.15,0
7.796,-6.02,-6.88,0
7.816,-6.63,-7.73,0
7.836,-7.0,-8.83,0
7.855,-7.86,-9.32,0
7.875,-8.71,-9.57,0
7.895,-9.08,-9.81,0
7.915,-9.45,-9.93,0
7.935,-9.57,-9.93,0
7.955,-9.69,-9.93,0
7.976,-9.93,-10.06,0
7.995,-9.93,-10.06,0
8.015,-10.06,-10.06,0
8.035,-10.06,-10.06,0
8.064,-10.06,-10.06,0
8.075,-10.06,-10.06,0
8.095,-10.06,-10.18,0
8.115,-10.18,-10.18,0
8.135,-10.18,-10.18,0
8.156,-10.18,-10.18,0
8.176,-10.18,-10.18,0
8.196,-10.18,-10.18,0
8.216,-10.18,-10.18,0
8.236,-10.18,-10.18,0
8.256,-10.18,-10.18,0
8.276,-10.18,-10.18,0
8.296,-10.18,-10.18,0
8.316,-10.18,-10.18,0
8.336,-10.18,-10.18,0
8.356,-10.18,-10.18,0
8.376,-10.18,-10.18,0
8.396,-10.18,-10.18,0
8.416,-10.18,-10.18,0
8.436,-10.18,-10.18,0
8.456,-10.3,-10.18,0
8.476,-10.3,-10.18,0
8.496,-10.18,-10.18,1
8.516,-10.18,-10.18,1
8.536,-10.06,-10.18,1
8.556,-10.18,-10.18,1
8.576,-10.3,-10.3,1
8.596,-10.3,-10.18,1
8.616,-10.3,-10.18,1
8.637,-10.3,-10.18,1
8.656,-10.3,-10.18,1
8.677,-10.3,-10.3,1
8.697,-10.3,-10.3,1
8.716,-10.3,-10.18,1
8.737,-10.3,-10.18,1
8.756,-10.3,-10.18,1
8.777,-10.18,-10.06,1
8.796,-9.45,-9.45,1
8.816,-8.96,-8.83,1
8.836,-8.47,-8.1,1
8.856,-8.1,-7.25,1
8.877,-7.25,-6.76,1
8.896,-6.76,-6.39,1
8.917,-6.27,-6.15,1
8.936,-5.78,-5.9,1
8.936,-5.17,-5.66,1
8.957,-4.8,-5.54,1
8.977,-4.68,-5.41,1
8.996,-4.56,-5.29,1
9.018,-4.56,-5.17,1
9.037,-4.56,-5.17,1
9.057,-4.56,-5.17,1
9.077,-4.68,-5.05,1
9.097,-4.31,-5.05,0
9.117,-4.07,-5.05,0
9.137,-4.07,-5.05,0
9.157,-3.95,-5.05,0
9.177,-3.82,-4.92,0
9.197,-4.07,-4.92,0
9.217,-4.07,-4.92,0
9.237,-4.07,-4.92,0
9.257,-3.95,-4.8,0
9.277,-3.95,-4.8,0
9.297,-3.82,-4.8,0
9.317,-3.95,-4.8,0
9.337,-3.95,-4.8,0
9.358,-3.95,-4.92,0
9.378,-4.07,-4.92,0
9.398,-4.07,-4.8,0
9.418,-3.95,-4.8,0
9.438,-3.7,-4.8,0
9.457,-3.7,-4.8,0
9.478,-3.82,-4.8,0
9.498,-3.7,-4.8,0
9.517,-3.82,-4.8,0
9.537,-3.95,-4.68,0
9.558,-3.95,-4.8,0
9.578,-3.95,-4.68,0
9.597,-3.95,-4.8,0
9.618,-3.82,-4.8,0
9.638,-3.82,-4.8,0
9.658,-3.82,-4.8,0
9.678,-3.82,-4.68,0
9.698,-3.95,-4.56,0
9.718,-3.95,-4.68,0
9.737,-3.82,-4.56,0
9.737,-3.7,-4.56,0
9.758,-3.58,-4.56,0
9.779,-3.58,-4.56,0
9.798,-3.7,-4.68,0
9.818,-4.31,-5.17,0
9.838,-5.54,-6.15,0
9.858,-6.39,-7.0,0
9.878,-6.88,-8.1,0
9.898,-7.37,-8.96,0
9.918,-8.35,-9.45,0
9.938,-8.96,-9.69,0
9.958,-9.45,-9.81,0
9.978,-9.57,-9.93,0
9.998,-9.69,-9.93,0
10.018,-9.81,-9.93,0
10.038,-9.93,-10.06,0
10.058,-10.06,-10.06,0
10.079,-10.06,-10.06,0
10.098,-10.06,-10.06,0
10.118,-10.06,-10.18,0
10.138,-10.06,-10.18,0
10.139,-10.18,-10.18,0
10.159,-10.3,-10.18,0
10.179,-10.3,-10.18,0
10.199,-10.18,-10.18,0
10.219,-10.18,-10.06,0
10.239,-10.18,-10.18,0
10.259,-10.18,-10.18,0
10.279,-10.3,-10.18,0
10.299,-10.3,-10.18,0
10.319,-10.3,-10.18,0
10.339,-10.3,-10.18,0
10.359,-10.18,-10.18,0
10.38,-10.18,-10.18,0
10.399,-10.18,-10.18,0
10.419,-10.3,-10.18,0
10.439,-10.3,-10.18,0
10.459,-10.3,-10.18,0
10.48,-10.3,-10.18,0
10.499,-10.3,-10.18,1
10.519,-10.18,-10.3,1
10.539,-10.18,-10.18,1
10.539,-10.3,-10.3,1
10.559,-10.3,-10.18,1
10.58,-10.3,-10.3,1
10.599,-10.3,-10.18,1
10.62,-10.18,-10.3,1
10.639,-10.3,-10.18,1
10.659,-10.3,-10.3,1
10.68,-10.3,-10.18,1
10.7,-10.3,-10.18,1
10.719,-10.3,-10.18,1
10.739,-10.3,-10.3,1
10.759,-9.81,-9.81,1
10.779,-9.2,-9.2,1
10.8,-8.71,-8.47,1
10.819,-8.22,-7.61,1
10.839,-7.61,-6.88,1
10.86,-6.88,-6.51,1
10.879,-6.39,-6.15,1
10.899,-5.78,-5.9,1
10.92,-5.29,-5.78,1
10.94,-4.92,-5.54,1
10.94,-4.68,-5.41,1
10.96,-4.56,-5.29,1
10.981,-4.56,-5.17,1
11.001,-4.56,-5.17,1
11.021,-4.56,-5.17,1
11.04,-4.56,-5.05,1
11.06,-4.31,-5.05,0
11.081,-4.07,-5.05,0
11.1,-3.95,-5.05,0
11.12,-3.95,-4.92,0
11.141,-3.95,-4.92,0
11.16,-4.07,-4.92,0
11.18,-4.19,-4.8,0
11.2,-4.07,-4.8,0
11.221,-3.95,-4.8,0
11.24,-3.95,-4.8,0
11.261,-3.95,-4.8,0
11.281,-3.95,-4.8,0
11.3,-3.95,-4.8,0
11.32,-4.19,-4.8,0
11.34,-4.07,-4.92,0
11.341,-3.95,-4.8,0
11.361,-3.82,-4.8,0
11.382,-3.82,-4.8,0
11.402,-3.82,-4.8,0
11.422,-3.82,-4.68,0
11.442,-3.82,-4.8,0
11.462,-3.95,-4.8,0
11.482,-4.07,-4.68,0
11.502,-3.95,-4.8,0
11.522,-3.95,-4.8,0
11.542,-3.82,-4.8,0
11.562,-3.82,-4.92,0
11.582,-3.82,-4.8,0
11.601,-3.82,-4.8,0
11.629,-3.95,-4.68,0
11.642,-3.95,-4.68,0
11.662,-3.82,-4.68,0
11.681,-3.7,-4.68,0
11.702,-3.46,-4.68,0
11.721,-3.7,-4.68,0
11.742,-3.7,-4.68,0
11.762,-4.68,-5.66,0
11.783,-5.78,-6.51,0
11.802,-6.51,-7.25,0
11.823,-7.0,-8.47,0
11.843,-7.49,-9.2,0
11.863,-8.59,-9.45,0
11.882,-9.08,-9.69,0
11.903,-9.45,-9.81,0
11.923,-9.57,-9.93,0
11.943,-9.81,-9.93,0
11.962,-9.93,-9.93,0
11.982,-9.93,-9.93,0
12.003,-10.06,-10.06,0
12.023,-10.06,-10.06,0
12.042,-10.06,-10.06,0
12.062,-10.06,-10.06,0
12.082,-10.06,-10.18,0
12.103,-10.3,-10.18,0
12.123,-10.3,-10.18,0
12.142,-10.3,-10.18,0
12.163,-10.18,-10.18,0
12.183,-10.18,-10.18,0
12.203,-10.18,-10.18,0
12.223,-10.3,-10.18,0
12.243,-10.3,-10.18,0
12.262,-10.18,-10.18,0
12.282,-10.18,-10.18,0
12.31,-10.18,-10.3,0
12.323,-10.18,-10.18,0
12.343,-10.18,-10.3,0
12.363,-10.18,-10.3,0
12.383,-10.18,-10.18,0
12.403,-10.3,-10.18,0
12.423,-10.3,-10.18,0
12.443,-10.3,-10.18,0
12.463,-10.18,-10.3,1
12.483,-10.18,-10.18,1
12.504,-10.18,-10.18,1
12.522,-10.18,-10.3,1
12.542,-10.3,-10.18,1
12.542,-10.3,-10.18,1
12.563,-10.3,-10.18,1
12.583,-10.3,-10.3,1
12.603,-10.3,-10.3,1
12.63,-10.3,-10.18,1
12.643,-10.3,-10.3,1
12.663,-10.3,-10.3,1
12.683,-10.3,-10.3,1
12.703,-10.3,-10.18,1
12.723,-9.69,-9.69,1
12.743,-9.08,-9.08,1
12.763,-8.59,-8.35,1
12.783,-8.22,-7.37,1
12.803,-7.49,-6.76,1
12.83,-6.76,-6.39,1
12.843,-6.27,-6.15,1
12.863,-5.66,-5.9,1
12.883,-5.17,-5.66,1
12.905,-4.8,-5.54,1
12.923,-4.68,-5.41,1
12.943,-4.56,-5.29,1
12.943,-4.56,-5.29,1
12.964,-4.68,-5.17,1
12.983,-4.68,-5.17,1
13.003,-4.44,-5.05,1
13.024,-4.31,-5.05,0
13.043,-4.07,-5.05,0
13.063,-3.95,-5.05,0
13.083,-3.95,-4.92,0
13.104,-3.95,-4.92,0
13.124,-4.19,-4.8,0
13.144,-4.07,-4.8,0
13.163,-4.07,-4.8,0
13.183,-4.07,-4.8,0
13.204,-3.95,-4.8,0
13.224,-3.95,-4.8,0
13.243,-3.95,-4.8,0
13.263,-4.07,-4.92,0
13.284,-4.19,-4.8,0
13.303,-4.07,-4.8,0
13.324,-3.95,-4.8,0
13.344,-3.82,-4.8,0
13.364,-3.82,-4.68,0
13.384,-3.82,-4.68,0
13.404,-3.82,-4.68,0
13.424,-3.95,-4.68,0
13.444,-3.95,-4.68,0
13.464,-3.95,-4.68,0
13.484,-3.95,-4.8,0
13.505,-3.95,-4.8,0
13.525,-3.82,-4.8,0
13.544,-3.7,-4.68,0
13.564,-3.7,-4.68,0
13.584,-3.82,-4.68,0
13.605,-3.82,-4.68,0
13.63,-3.82,-4.56,0
13.645,-3.7,-4.68,0
13.665,-3.58,-4.68,0
13.684,-3.58,-4.68,0
13.705,-3.7,-4.68,0
13.725,-3.82,-4.8,0
13.744,-5.05,-5.9,0
13.765,-6.02,-6.76,0
13.785,-6.63,-7.61,0
13.805,-7.12,-8.71,0
13.825,-7.86,-9.32,0
13.845,-8.83,-9.57,0
13.864,-9.32,-9.81,0
13.885,-9.57,-9.93,0
13.905,-9.81,-9.93,0
13.924,-9.93,-10.06,0
13.946,-9.93,-10.06,0
13.965,-10.06,-10.06,0
13.985,-10.06,-10.06,0
14.005,-10.06,-10.06,0
14.025,-10.06,-10.18,0
14.045,-10.06,-10.18,0
14.064,-10.18,-10.06,0
14.085,-10.3,-10.06,0
14.104,-10.3,-10.18,0
14.13,-10.3,-10.18,0
14.144,-10.18,-10.06,0
14.166,-10.18,-10.18,0
14.185,-10.18,-10.18,0
14.204,-10.18,-10.18,0
14.225,-10.18,-10.18,0
14.245,-10.18,-10.18,0
14.265,-10.18,-10.18,0
14.284,-10.18,-10.18,0
14.304,-10.18,-10.18,0
14.325,-10.18,-10.18,0
14.345,-10.18,-10.18,0
14.364,-10.3,-10.18,0
14.385,-10.3,-10.3,0
14.405,-10.3,-10.3,0
14.43,-10.3,-10.18,0
14.445,-10.18,-10.3,1
14.465,-10.18,-10.3,1
14.485,-10.18,-10.18,1
14.505,-10.3,-10.3,1
14.525,-10.3,-10.3,1
14.545,-10.3,-10.18,1
14.545,-10.3,-10.3,1
14.566,-10.3,-10.3,1
14.586,-10.3,-10.3,1
14.606,-10.3,-10.3,1
14.63,-10.3,-10.18,1
14.646,-10.42,-10.3,1
14.666,-10.3,-10.3,1
14.686,-10.06,-10.06,1
14.705,-9.45,-9.45,1
14.726,-8.83,-8.71,1
14.746,-8.47,-7.86,1
14.766,-7.86,-7.12,1
14.786,-7.12,-6.51,1
14.806,-6.39,-6.15,1
14.826,-6.02,-6.02,1
14.846,-5.41,-5.78,1
14.866,-5.05,-5.66,1
14.886,-4.8,-5.41,1
14.906,-4.68,-5.41,1
14.926,-4.56,-5.29,1
14.945,-4.56,-5.17,1
14.966,-4.56,-5.17,1
14.986,-4.56,-5.17,1
15.006,-4.31,-5.05,0
15.026,-4.31,-5.05,0
15.046,-4.07,-5.05,0
15.066,-3.95,-5.05,0
15.086,-3.95,-4.92,0
15.107,-3.95,-4.92,0
15.13,-4.07,-4.92,0
15.146,-4.07,-4.92,0
15.165,-4.07,-4.8,0
15.185,-3.95,-4.8,0
15.206,-3.95,-4.8,0
15.225,-3.82,-4.8,0
15.246,-3.95,-4.8,0
15.266,-4.07,-4.8,0
15.286,-4.07,-4.92,0
15.306,-3.95,-4.92,0
15.326,-3.82,-4.8,0
15.346,-3.82,-4.8,0
15.367,-3.7,-4.8,0
15.387,-3.82,-4.8,0
15.407,-3.82,-4.68,0
15.427,-3.95,-4.8,0
15.446,-3.95,-4.68,0
15.467,-3.95,-4.68,0
15.487,-3.95,-4.8,0
15.506,-3.95,-4.8,0
15.526,-3.82,-4.8,0
15.547,-3.82,-4.8,0
15.567,-3.82,-4.8,0
15.587,-3.82,-4.68,0
15.606,-3.82,-4.56,0
15.63,-3.82,-4.68,0
15.647,-3.82,-4.56,0
15.667,-3.7,-4.56,0
15.687,-3.7,-4.56,0
15.707,-3.7,-4.68,0
15.727,-4.31,-5.17,0
15.747,-5.66,-6.27,0
15.767,-6.39,-7.0,0
15.788,-6.88,-8.1,0
15.808,-7.37,-9.08,0
15.828,-8.35,-9.45,0
15.848,-9.08,-9.69,0
15.867,-9.45,-9.81,0
15.888,-9.69,-9.81,0
15.908,-9.81,-9.93,0
15.927,-9.93,-9.93,0
15.948,-10.06,-10.06,0
15.967,-10.06,-10.06,0
15.988,-10.06,-10.06,0
16.013,-10.06,-10.06,0
16.027,-10.06,-10.18,0
16.047,-10.06,-10.18,0
16.067,-10.18,-10.18,0
16.087,-10.18,-10.18,0
16.107,-10.18,-10.18,0
16.127,-10.18,-10.18,0
16.147,-10.06,-10.18,0
16.168,-10.18,-10.18,0
16.188,-10.18,-10.18,0
16.209,-10.18,-10.18,0
16.228,-10.18,-10.18,0
16.248,-10.18,-10.18,0
16.268,-10.18,-10.18,0
16.287,-10.18,-10.18,0
16.307,-10.18,-10.18,0
16.328,-10.18,-10.18,0
16.348,-10.3,-10.18,0
16.368,-10.3,-10.18,0
16.387,-10.3,-10.18,0
16.408,-10.3,-10.18,0
16.427,-10.18,-10.18,1
16.447,-10.3,-10.18,1
16.468,-10.3,-10.3,1
16.487,-10.3,-10.18,1
16.508,-10.3,-10.3,1
16.527,-10.3,-10.3,1
16.547,-10.3,-10.3,1
16.547,-10.18,-10.3,1
16.568,-10.3,-10.3,1
16.588,-10.3,-10.3,1
16.608,-10.3,-10.3,1
16.63,-10.3,-10.3,1
16.647,-10.3,-10.18,1
16.668,-10.42,-10.3,1
16.688,-9.81,-9.81,1
16.708,-9.2,-9.2,1
16.728,-8.71,-8.47,1
16.748,-8.35,-7.61,1
16.768,-7.61,-6.88,1
16.788,-6.88,-6.51,1
16.808,-6.27,-6.15,1
16.828,-5.66,-5.9,1
16.848,-5.29,-5.78,1
16.868,-5.05,-5.54,1
16.888,-4.8,-5.41,1
16.908,-4.56,-5.29,1
16.928,-4.56,-5.17,1
16.948,-4.44,-5.17,1
16.968,-4.56,-5.05,1
16.989,-4.44,-5.05,1
17.009,-4.31,-5.05,0
17.029,-4.19,-4.92,0
17.049,-4.07,-5.05,0
17.078,-3.82,-4.92,0
17.088,-3.95,-4.92,0
17.109,-4.07,-4.92,0
17.129,-4.19,-4.8,0
17.149,-3.95,-4.8,0
17.168,-4.07,-4.8,0
17.189,-3.95,-4.8,0
17.209,-3.95,-4.8,0
17.229,-3.95,-4.8,0
17.248,-3.95,-4.8,0
17.268,-4.07,-4.8,0
17.288,-4.07,-4.8,0
17.308,-3.82,-4.8,0
17.329,-3.95,-4.68,0
17.349,-3.82,-4.8,0
17.349,-3.82,-4.68,0
17.369,-3.95,-4.68,0
17.389,-3.95,-4.68,0
17.41,-3.95,-4.68,0
17.43,-3.95,-4.8,0
17.449,-3.95,-4.68,0
17.47,-4.07,-4.8,0
17.489,-3.95,-4.8,0
17.509,-3.82,-4.8,0
17.529,-3.82,-4.8,0
17.549,-3.82,-4.68,0
17.569,-3.82,-4.68,0
17.589,-3.82,-4.68,0
17.609,-3.7,-4.68,0
17.63,-3.7,-4.56,0
17.65,-3.7,-4.68,0
17.669,-3.7,-4.68,0
17.689,-3.82,-4.68,0
17.709,-4.8,-5.66,0
17.729,-5.9,-6.63,0
17.75,-6.51,-7.37,0
17.77,-7.0,-8.59,0
17.79,-7.61,-9.32,0
17.81,-8.59,-9.57,0
17.83,-9.2,-9.81,0
17.85,-9.57,-9.81,0
17.87,-9.69,-9.93,0
17.89,-9.81,-9.93,0
17.91,-9.93,-10.06,0
17.93,-9.93,-10.06,0
17.95,-10.06,-10.06,0
17.97,-9.93,-10.06,0
17.99,-10.06,-10.06,0
18.01,-10.18,-10.18,0
18.03,-10.18,-10.18,0
18.05,-10.3,-10.18,0
18.07,-10.3,-10.18,0
18.09,-10.3,-10.18,0
18.11,-10.18,-10.18,0
18.13,-10.3,-10.18,0
18.15,-10.18,-10.18,0
18.15,-10.18,-10.18,0
18.17,-10.3,-10.18,0
18.19,-10.3,-10.18,0
18.21,-10.3,-10.3,0
18.231,-10.18,-10.3,0
18.25,-10.3,-10.3,0
18.27,-10.18,-10.18,0
18.29,-10.3,-10.3,0
18.31,-10.3,-10.3,0
18.331,-10.3,-10.18,0
18.35,-10.3,-10.18,0
18.37,-10.3,-10.3,0
18.39,-10.3,-10.3,1
18.41,-10.3,-10.3,1
18.431,-10.18,-10.18,1
18.45,-10.18,-10.3,1
18.47,-10.3,-10.3,1
18.491,-10.3,-10.18,1
18.51,-10.3,-10.3,1
18.53,-10.3,-10.3,1
18.55,-10.3,-10.3,1
18.55,-10.3,-10.3,1
18.571,-10.3,-10.3,1
18.591,-10.3,-10.3,1
18.611,-10.3,-10.3,1
18.631,-10.18,-10.18,1
18.65,-9.69,-9.57,1
18.671,-8.96,-9.08,1
18.691,-8.59,-8.22,1
18.711,-8.1,-7.37,1
18.731,-7.37,-6.76,1
18.751,-6.63,-6.27,1
18.771,-6.15,-6.15,1
18.791,-5.66,-5.9,1
18.81,-5.17,-5.78,1
18.831,-5.05,-5.54,1
18.851,-4.8,-5.41,1
18.871,-4.68,-5.29,1
18.891,-4.56,-5.17,1
18.911,-4.56,-5.17,1
18.931,-4.56,-5.17,1
18.951,-4.44,-5.05,1
18.971,-4.31,-5.05,0
18.991,-4.19,-5.05,0
19.012,-3.95,-4.92,0
19.031,-3.95,-4.92,0
19.051,-3.95,-4.92,0
19.071,-4.07,-4.92,0
19.092,-4.07,-4.92,0
19.111,-4.07,-4.8,0
19.131,-3.95,-4.8,0
19.152,-3.95,-4.8,0
19.171,-3.95,-4.8,0
19.192,-3.95,-4.8,0
19.211,-3.95,-4.8,0
19.231,-4.07,-4.8,0
19.251,-4.07,-4.8,0
19.271,-3.82,-4.8,0
19.291,-3.95,-4.8,0
19.311,-3.95,-4.68,0
19.331,-3.82,-4.68,0
19.351,-3.82,-4.68,0
19.351,-3.95,-4.68,0
19.372,-3.95,-4.68,0
19.392,-3.95,-4.68,0
19.412,-3.95,-4.68,0
19.432,-4.07,-4.68,0
19.452,-3.95,-4.8,0
19.472,-3.7,-4.68,0
19.492,-3.7,-4.68,0
19.512,-3.82,-4.68,0
19.532,-3.82,-4.56,0
19.552,-3.7,-4.56,0
19.572,-3.7,-4.56,0
19.592,-3.7,-4.56,0
19.612,-3.58,-4.56,0
19.632,-3.7,-4.56,0
19.652,-3.95,-4.8,0
19.672,-5.17,-5.9,0
19.692,-6.15,-6.76,0
19.712,-6.76,-7.73,0
19.732,-7.12,-8.83,0
19.752,-7.98,-9.45,0
19.773,-8.83,-9.69,0
19.792,-9.32,-9.81,0
19.812,-9.57,-9.93,0
19.833,-9.81,-10.06,0
19.852,-9.93,-10.06,0
19.872,-10.06,-10.06,0
19.893,-10.06,-10.06,0
19.913,-10.06,-10.06,0
19.932,-10.06,-10.06,0
19.952,-10.18,-10.18,0
19.973,-10.06,-10.18,0
19.993,-10.18,-10.18,0
20.012,-10.3,-10.18,0
20.032,-10.18,-10.18,0
20.052,-10.18,-10.18,0
20.073,-10.18,-10.18,0
20.092,-10.18,-10.18,0
20.112,-10.3,-10.18,0
20.133,-10.3,-10.18,0
20.153,-10.3,-10.18,0
20.173,-10.3,-10.18,0
20.193,-10.18,-10.3,0
20.213,-10.18,-10.18,0
20.233,-10.3,-10.3,0
20.255,-10.18,-10.18,0
20.274,-10.3,-10.18,0
20.294,-10.3,-10.18,0
20.313,-10.3,-10.18,0
20.333,-10.3,-10.3,0
20.353,-10.3,-10.3,1
20.374,-10.3,-10.18,1
20.393,-10.3,-10.3,1
20.413,-10.18,-10.3,1
20.433,-10.3,-10.3,1
20.454,-10.3,-10.18,1
20.473,-10.3,-10.3,1
20.493,-10.18,-10.3,1
20.513,-10.3,-10.3,1
20.534,-10.3,-10.3,1
20.554,-10.42,-10.3,1
20.575,-10.3,-10.3,1
20.594,-10.3,-10.3,1
20.614,-10.3,-10.3,1
20.634,-9.93,-9.93,1
20.654,-9.32,-9.45,1
20.674,-8.83,-8.71,1
20.694,-8.35,-7.73,1
20.714,-7.86,-7.0,1
20.735,-7.0,-6.51,1
20.754,-6.27,-6.27,1
20.78,-5.9,-6.02,1
20.794,-5.41,-5.78,1
20.815,-5.17,-5.66,1
20.834,-4.92,-5.54,1
20.854,-4.68,-5.41,1
20.875,-4.56,-5.29,1
20.894,-4.56,-5.17,1
20.914,-4.56,-5.17,1
20.934,-4.56,-5.05,1
20.954,-4.31,-5.05,0
20.974,-4.31,-5.05,0
20.994,-4.19,-5.05,0
21.014,-3.95,-4.92,0
21.035,-3.95,-4.92,0
21.054,-4.07,-4.92,0
21.074,-4.07,-4.8,0
21.094,-4.07,-4.8,0
21.114,-3.95,-4.8,0
21.134,-3.95,-4.8,0
21.154,-3.95,-4.8,0
21.175,-3.95,-4.8,0
21.194,-3.95,-4.92,0
21.215,-4.07,-4.8,0
21.234,-4.07,-4.92,0
21.254,-3.95,-4.92,0
21.274,-3.82,-4.8,0
21.295,-3.82,-4.8,0
21.314,-3.82,-4.8,0
21.334,-3.82,-4.8,0
21.354,-3.82,-4.68,0
21.375,-3.95,-4.8,0
21.395,-3.95,-4.68,0
21.415,-3.95,-4.8,0
21.435,-3.95,-4.8,0
21.455,-4.07,-4.92,0
21.475,-3.95,-4.92,0
21.495,-3.82,-4.8,0
21.515,-3.82,-4.8,0
21.535,-3.95,-4.68,0
21.555,-3.82,-4.68,0
21.575,-3.82,-4.56,0
21.595,-3.7,-4.56,0
21.616,-3.7,-4.56,0
21.635,-3.7,-4.56,0
21.655,-3.7,-4.68,0
21.674,-4.56,-5.29,0
21.695,-5.66,-6.39,0
21.715,-6.51,-7.12,0
21.735,-7.0,-8.22,0
21.755,-7.49,-9.08,0
21.775,-8.35,-9.45,0
21.795,-9.08,-9.69,0
21.815,-9.57,-9.81,0
21.838,-9.69,-9.93,0
21.855,-9.81,-9.93,0
21.875,-9.93,-10.06,0
21.896,-10.06,-10.06,0
21.916,-10.06,-10.06,0
21.935,-10.06,-10.06,0
21.955,-10.06,-10.06,0
21.976,-10.06,-10.18,0
21.995,-10.06,-10.18,0
22.015,-10.18,-10.18,0
22.035,-10.18,-10.18,0
22.055,-10.18,-10.18,0
22.076,-10.18,-10.18,0
22.096,-10.3,-10.18,0
22.115,-10.18,-10.18,0
22.136,-10.18,-10.18,0
22.155,-10.18,-10.18,0
22.175,-10.18,-10.18,0
22.195,-10.18,-10.18,0
22.216,-10.18,-10.18,0
22.236,-10.18,-10.3,0
22.256,-10.18,-10.18,0
22.276,-10.3,-10.3,0
22.296,-10.18,-10.18,0
22.316,-10.3,-10.18,0
22.335,-10.3,-10.18,0
22.356,-10.18,-10.18,0
22.38,-10.3,-10.18,1
22.396,-10.3,-10.3,1
22.416,-10.18,-10.18,1
22.436,-10.18,-10.18,1
22.455,-10.3,-10.3,1
22.475,-10.3,-10.18,1
22.496,-10.18,-10.3,1
22.515,-10.3,-10.3,1
22.536,-10.3,-10.3,1
22.556,-10.3,-10.3,1
22.576,-10.3,-10.3,1
22.596,-10.42,-10.3,1
22.616,-10.3,-10.3,1
22.637,-10.3,-10.3,1
22.656,-9.81,-9.69,1
22.676,-9.08,-9.08,1
22.696,-8.59,-8.35,1
22.716,-8.22,-7.49,1
22.736,-7.61,-6.76,1
22.756,-6.76,-6.39,1
22.776,-6.15,-6.15,1
22.796,-5.66,-5.9,1
22.816,-5.29,-5.78,1
22.836,-5.05,-5.66,1
22.856,-4.92,-5.41,1
22.876,-4.68,-5.41,1
22.896,-4.56,-5.29,1
22.916,-4.56,-5.17,1
22.936,-4.56,-5.17,1
22.956,-4.31,-5.17,1
22.956,-4.31,-5.05,0
22.977,-4.19,-5.05,0
22.996,-4.07,-5.05,0
23.016,-3.95,-5.05,0
23.036,-3.95,-4.92,0
23.056,-4.07,-4.92,0
23.076,-4.07,-4.92,0
23.096,-4.07,-4.8,0
23.117,-4.07,-4.8,0
23.136,-4.07,-4.8,0
23.157,-3.95,-4.8,0
23.176,-3.95,-4.8,0
23.196,-4.07,-4.8,0
23.216,-4.07,-4.8,0
23.237,-3.95,-4.8,0
23.256,-3.95,-4.8,0
23.277,-3.95,-4.68,0
23.296,-3.95,-4.68,0
23.316,-3.82,-4.68,0
23.336,-3.82,-4.68,0
23.357,-3.95,-4.68,0
23.377,-3.95,-4.68,0
23.397,-3.95,-4.68,0
23.417,-3.95,-4.68,0
23.437,-4.07,-4.8,0
23.457,-4.07,-4.8,0
23.478,-3.95,-4.8,0
23.497,-3.82,-4.68,0
23.517,-3.82,-4.8,0
23.537,-3.82,-4.68,0
23.557,-3.82,-4.68,0
23.577,-3.7,-4.68,0
23.597,-3.82,-4.56,0
23.617,-3.82,-4.68,0
23.637,-3.7,-4.68,0
23.657,-3.82,-4.8,0
23.678,-5.05,-5.9,0
23.697,-6.02,-6.76,0
23.717,-6.63,-7.61,0
23.737,-7.12,-8.71,0
23.757,-7.86,-9.32,0
23.777,-8.71,-9.69,0
23.797,-9.32,-9.81,0
23.817,-9.57,-9.81,0
23.838,-9.81,-9.93,0
23.857,-9.93,-10.06,0
23.877,-9.93,-9.93,0
23.897,-9.93,-10.06,0
23.918,-10.06,-10.06,0
23.938,-10.06,-10.06,0
23.963,-10.18,-10.18,0
23.977,-10.06,-10.18,0
23.997,-10.18,-10.18,0
24.017,-10.18,-10.18,0
24.037,-10.18,-10.18,0
24.058,-10.18,-10.18,0
24.078,-10.18,-10.18,0
24.097,-10.18,-10.18,0
24.117,-10.18,-10.18,0
24.137,-10.3,-10.18,0
24.157,-10.3,-10.18,0
24.157,-10.18,-10.18,0
24.177,-10.18,-10.18,0
24.198,-10.18,-10.18,0
24.218,-10.18,-10.3,0
24.238,-10.18,-10.18,0
24.257,-10.18,-10.18,0
24.278,-10.3,-10.18,0
24.298,-10.3,-10.3,0
24.317,-10.3,-10.3,0
24.338,-10.3,-10.18,0
24.357,-10.3,-10.3,1
24.377,-10.18,-10.18,1
24.398,-10.18,-10.18,1
24.418,-10.18,-10.3,1
24.437,-10.3,-10.3,1
24.457,-10.18,-10.3,1
24.477,-10.3,-10.3,1
24.497,-10.3,-10.18,1
24.518,-10.3,-10.3,1
24.537,-10.3,-10.3,1
24.558,-10.3,-10.3,1
24.558,-10.3,-10.18,1
24.578,-10.3,-10.3,1
24.598,-10.18,-10.06,1
24.628,-9.45,-9.57,1
24.638,-8.96,-8.83,1
24.658,-8.47,-7.98,1
24.678,-7.98,-7.12,1
24.699,-7.25,-6.63,1
24.719,-6.51,-6.27,1
24.738,-5.9,-6.15,1
24.759,-5.54,-5.9,1
24.779,-5.17,-5.66,1
24.798,-5.05,-5.54,1
24.818,-4.8,-5.41,1
24.838,-4.68,-5.29,1
24.858,-4.56,-5.29,1
24.878,-4.68,-5.17,1
24.899,-4.56,-5.17,1
24.919,-4.31,-5.05,1
24.939,-4.31,-5.05,0
24.958,-4.19,-5.05,0
24.958,-4.07,-5.05,0
24.979,-3.95,-5.05,0
24.999,-4.07,-4.92,0
25.026,-4.07,-4.92,0
25.039,-4.07,-4.92,0
25.059,-4.07,-4.8,0
25.079,-4.07,-4.92,0
25.099,-4.07,-4.8,0
25.119,-4.07,-4.92,0
25.139,-4.07,-4.92,0
25.159,-4.19,-4.92,0
25.179,-4.07,-4.92,0
25.199,-4.07,-4.92,0
25.219,-3.95,-4.92,0
25.239,-3.95,-4.8,0
25.258,-4.07,-4.8,0
25.279,-3.95,-4.8,0
25.299,-3.82,-4.8,0
25.319,-3.95,-4.68,0
25.339,-3.95,-4.8,0
25.359,-4.07,-4.8,0
25.379,-3.95,-4.8,0
25.399,-4.07,-4.8,0
25.419,-4.07,-4.8,0
25.439,-3.95,-4.8,0
25.459,-3.82,-4.8,0
25.479,-3.95,-4.68,0
25.499,-3.95,-4.68,0
25.519,-3.82,-4.56,0
25.54,-3.82,-4.68,0
25.559,-3.82,-4.56,0
25.579,-3.82,-4.56,0
25.6,-3.7,-4.68,0
25.62,-4.19,-5.05,0
25.639,-5.41,-6.15,0
25.659,-6.27,-7.0,0
25.679,-6.88,-7.98,0
25.699,-7.25,-8.96,0
25.719,-8.1,-9.45,0
25.739,-8.96,-9.69,0
25.759,-9.45,-9.81,0
25.779,-9.69,-9.93,0
25.799,-9.69,-10.06,0
25.819,-9.81,-10.06,0
25.839,-9.93,-10.06,0
25.859,-9.93,-10.06,0
25.879,-10.06,-10.06,0
25.9,-10.06,-10.18,0
25.919,-10.06,-10.18,0
25.94,-10.06,-10.18,0
25.96,-10.3,-10.18,0
25.979,-10.18,-10.18,0
25.999,-10.18,-10.18,0
26.019,-10.18,-10.18,0
26.04,-10.3,-10.18,0
26.059,-10.18,-10.18,0
26.079,-10.3,-10.18,0
26.1,-10.3,-10.18,0
26.119,-10.3,-10.18,0
26.139,-10.18,-10.18,0
26.159,-10.18,-10.18,0
26.18,-10.18,-10.18,0
26.2,-10.18,-10.18,0
26.22,-10.18,-10.18,0
26.24,-10.3,-10.18,0
26.26,-10.3,-10.18,0
26.28,-10.3,-10.18,0
26.3,-10.18,-10.18,0
26.32,-10.3,-10.18,1
26.34,-10.3,-10.18,1
26.36,-10.18,-10.18,1
26.38,-10.18,-10.3,1
26.4,-10.18,-10.3,1
26.42,-10.18,-10.18,1
26.44,-10.18,-10.3,1
26.46,-10.3,-10.3,1
26.48,-10.3,-10.3,1
26.5,-10.3,-10.3,1
26.52,-10.3,-10.3,1
26.54,-10.3,-10.3,1
26.56,-10.3,-10.3,1
26.581,-10.3,-10.3,1
26.601,-9.93,-9.81,1
26.621,-9.2,-9.32,1
26.641,-8.71,-8.59,1
26.661,-8.35,-7.61,1
26.681,-7.73,-7.0,1
26.701,-6.88,-6.51,1
26.721,-6.27,-6.27,1
26.741,-5.78,-6.02,1
26.76,-5.41,-5.78,1
26.781,-5.17,-5.54,1
26.8,-4.92,-5.54,1
26.821,-4.68,-5.29,1
26.841,-4.56,-5.29,1
26.861,-4.68,-5.17,1
26.881,-4.68,-5.17,1
26.901,-4.56,-5.17,1
26.921,-4.44,-5.05,0
26.941,-4.31,-5.05,0
26.961,-4.19,-5.05,0
26.961,-4.07,-5.05,0
26.981,-3.95,-5.05,0
27.001,-4.19,-4.92,0
27.022,-4.07,-4.92,0
27.041,-4.07,-4.92,0
27.061,-4.07,-4.8,0
27.081,-4.07,-4.8,0
27.102,-4.07,-4.8,0
27.121,-4.07,-4.92,0
27.141,-4.07,-4.92,0
27.161,-4.19,-4.92,0
27.181,-4.07,-4.92,0
27.201,-3.95,-4.92,0
27.221,-3.95,-4.92,0
27.241,-4.07,-4.8,0
27.261,-3.95,-4.8,0
27.281,-3.95,-4.8,0
27.301,-3.95,-4.8,0
27.321,-3.95,-4.8,0
27.341,-3.95,-4.8,0
27.361,-3.95,-4.8,0
27.382,-3.95,-4.8,0
27.402,-4.07,-4.92,0
27.422,-3.95,-4.92,0
27.442,-3.82,-4.8,0
27.461,-3.82,-4.8,0
27.482,-3.95,-4.68,0
27.502,-3.82,-4.68,0
27.522,-3.82,-4.68,0
27.541,-3.82,-4.68,0
27.562,-3.7,-4.68,0
27.582,-3.7,-4.68,0
27.602,-3.82,-4.68,0
27.629,-4.68,-5.54,0
27.641,-5.78,-6.51,0
27.662,-6.51,-7.12,0
27.682,-7.0,-8.47,0
27.701,-7.49,-9.2,0
27.721,-8.59,-9.57,0
27.742,-9.2,-9.69,0
27.761,-9.57,-9.81,0
27.781,-9.81,-9.93,0
27.801,-9.81,-9.93,0
27.822,-9.93,-10.06,0
27.842,-10.06,-10.06,0
27.862,-10.06,-10.06,0
27.882,-10.06,-10.06,0
27.902,-10.18,-10.18,0
27.922,-10.18,-10.18,0
27.942,-10.18,-10.18,0
27.962,-10.18,-10.18,0
27.982,-10.18,-10.18,0
28.002,-10.18,-10.18,0
28.022,-10.18,-10.18,0
28.041,-10.3,-10.18,0
28.062,-10.18,-10.18,0
28.082,-10.18,-10.18,0
28.101,-10.3,-10.18,0
28.122,-10.18,-10.18,0
28.141,-10.18,-10.3,0
28.162,-10.18,-10.3,0
28.162,-10.18,-10.3,0
28.183,-10.18,-10.18,0
28.202,-10.18,-10.18,0
28.222,-10.3,-10.3,0
28.242,-10.18,-10.18,0
28.262,-10.3,-10.18,0
28.282,-10.3,-10.18,0
28.303,-10.3,-10.3,1
28.323,-10.3,-10.3,1
28.342,-10.18,-10.3,1
28.362,-10.18,-10.3,1
28.383,-10.18,-10.18,1
28.402,-10.18,-10.3,1
28.422,-10.18,-10.3,1
28.442,-10.3,-10.3,1
28.463,-10.3,-10.3,1
28.482,-10.3,-10.3,1
28.503,-10.3,-10.3,1
28.522,-10.42,-10.3,1
28.542,-10.3,-10.3,1
28.562,-10.3,-10.3,1
28.583,-9.69,-9.69,1
28.603,-9.08,-9.08,1
28.63,-8.59,-8.22,1
28.643,-8.1,-7.37,1
28.662,-7.49,-6.76,1
28.683,-6.63,-6.39,1
28.703,-6.02,-6.15,1
28.73,-5.66,-5.9,1
28.742,-5.29,-5.78,1
28.763,-5.05,-5.54,1
28.782,-4.92,-5.41,1
28.804,-4.68,-5.41,1
28.823,-4.56,-5.29,1
28.842,-4.56,-5.17,1
28.863,-4.56,-5.17,1
28.883,-4.44,-5.05,1
28.903,-4.31,-5.05,0
28.922,-4.31,-5.05,0
28.943,-4.19,-5.05,0
28.962,-3.95,-5.05,0
28.963,-4.07,-4.92,0
28.983,-4.07,-4.92,0
29.004,-4.07,-4.92,0
29.022,-3.95,-4.8,0
29.043,-4.07,-4.8,0
29.063,-4.07,-4.8,0
29.083,-4.07,-4.8,0
29.103,-3.95,-4.92,0
29.13,-4.07,-4.92,0
29.142,-4.07,-4.8,0
29.163,-3.95,-4.92,0
29.182,-3.95,-4.8,0
29.204,-3.95,-4.8,0
29.223,-3.95,-4.68,0
29.242,-3.82,-4.68,0
29.263,-3.95,-4.68,0
29.283,-3.95,-4.68,0
29.303,-3.95,-4.68,0
29.323,-3.95,-4.68,0
29.343,-3.95,-4.68,0
29.363,-4.07,-4.8,0
29.384,-3.95,-4.8,0
29.404,-3.95,-4.8,0
29.423,-3.82,-4.68,0
29.443,-3.82,-4.8,0
29.464,-3.95,-4.68,0
29.483,,,
29.504,-3.95,-4.68,0
29.523,-3.82,-4.68,0
29.544,-3.82,-4.68,0
29.563,-3.82,-4.68,0
29.584,-3.82,-4.68,0
29.603,-4.07,-4.8,0
29.623,-5.17,-6.02,0
29.644,-6.15,-6.88,0
29.663,-6.76,-7.73,0
29.684,-7.25,-8.83,0
29.703,-7.98,-9.45,0
29.724,-8.83,-9.69,0
29.744,,,
29.763,-9.45,-9.81,0
29.769,-9.69,-9.93,0
29.79,-9.81,-9.93,0
29.81,,,
29.83,-9.93,-10.06,0
29.85,-9.93,-10.06,0
29.87,-10.06,-10.06,0
29.89,-10.06,-10.06,0
29.91,-10.06,-10.18,0
29.93,-10.18,-10.18,0
29.954,-10.06,-10.18,0
29.978,-10.18,-10.18,0
30.003,-10.18,-10.18,0
30.022,,,
30.03,-10.18,-10.18,0
30.05,,,
30.07,-10.18,-10.18,0
30.09,-10.3,-10.18,0
30.11,-10.18,-10.18,0
30.13,-10.18,-10.18,0
30.15,-10.18,-10.18,0
30.17,-10.18,-10.18,0
30.191,,,
30.21,-10.18,-10.3,0
30.231,-10.18,-10.18,0
30.251,-10.18,-10.3,0
30.271,-10.18,-10.3,0
30.291,-10.18,-10.18,0
30.314,-10.18,-10.18,0
30.338,-10.18,-10.18,0
30.359,,,
30.371,-10.3,-10.3,0
30.391,-10.3,-10.3,0
30.41,-10.18,-10.3,0
30.432,-10.3,-10.18,1
30.457,-10.3,-10.3,1
30.482,-10.18,-10.3,1
30.502,,,
30.511,-10.18,-10.3,1
30.531,,,
30.551,-10.18,-10.3,1
30.571,-10.18,-10.3,1
30.591,-10.3,-10.3,1
30.611,-10.3,-10.3,1
30.632,-10.3,-10.3,1
30.651,-10.3,-10.3,1
30.671,,,
30.691,-10.3,-10.3,1
30.711,-10.3,-10.3,1
30.731,-10.3,-10.3,1
30.751,-10.06,-10.06,1
30.771,-9.32,-9.45,1
30.791,-8.83,-8.71,1
30.811,,,
30.831,-8.35,-7.73,1
30.851,-7.98,-7.0,1
30.871,-7.12,-6.63,1
30.891,-6.39,-6.27,1
30.911,-5.9,-6.02,1
30.931,-5.41,-5.78,1
30.951,-5.17,-5.66,1
30.971,-4.92,-5.54,1
30.992,-4.68,-5.41,1
31.012,-4.68,-5.29,1
31.032,-4.56,-5.17,1
31.052,-4.68,-5.17,1
31.075,-4.56,-5.17,1
31.097,-4.31,-5.05,0
31.117,-4.31,-5.05,0
31.141,-4.19,-5.05,0
31.162,-4.07,-5.05,0
31.183,,,
31.191,-3.95,-5.05,0
31.212,-4.19,-4.92,0
31.232,-4.19,-4.92,0
31.252,-4.07,-4.92,0
31.272,-4.07,-4.8,0
31.293,-4.07,-4.8,0
31.313,,,
31.331,-4.07,-4.92,0
31.351,-3.95,-4.92,0
31.372,-4.07,-4.92,0
31.392,-4.19,-4.92,0
31.413,-4.07,-4.92,0
31.433,-3.95,-4.92,0
31.453,-3.95,-4.92,0
31.473,-4.07,-4.8,0
31.492,-3.95,-4.8,0
31.513,,,
31.532,-3.95,-4.8,0
31.552,-4.07,-4.8,0
31.573,-3.95,-4.8,0
31.593,-3.95,-4.8,0
31.613,-3.95,-4.8,0
31.632,-4.07,-4.8,0
31.652,-4.07,-4.8,0
31.673,-4.07,-4.92,0
31.693,-3.95,-4.8,0
31.712,-3.82,-4.68,0
31.732,-3.95,-4.68,0
31.752,-3.95,-4.68,0
31.773,,,
31.773,,,
31.794,-3.95,-4.68,0
31.813,-3.82,-4.68,0
31.834,-3.82,-4.56,0
31.853,-3.82,-4.68,0
31.873,-3.95,-4.68,0
31.894,-4.56,-5.29,0
31.913,-5.78,-6.39,0
31.934,-6.51,-7.0,0
31.954,-6.88,-8.22,0
31.974,-7.49,-9.08,0
31.994,-8.47,-9.57,0
32.013,-9.08,-9.69,0
32.038,-9.57,-9.81,0
32.059,-9.69,-9.93,0
32.079,-9.81,-9.93,0
32.104,-9.93,-9.93,0
32.121,-9.93,-10.06,0
32.144,,,
32.154,-10.06,-10.06,0
32.174,-10.06,-10.18,0
32.194,-10.18,-10.18,0
32.219,-10.06,-10.18,0
32.243,-10.06,-10.18,0
32.267,-10.18,-10.18,0
32.292,-10.18,-10.18,0
32.314,,,
32.315,,,
32.334,-10.18,-10.18,0
32.355,-10.18,-10.18,0
32.375,-10.18,-10.18,0
32.395,-10.18,-10.18,0
32.414,-10.18,-10.18,0
32.44,-10.3,-10.18,0
32.459,-10.3,-10.3,0
32.48,,,
32.495,-10.18,-10.18,0
32.514,-10.18,-10.18,0
32.534,-10.3,-10.18,0
32.555,-10.18,-10.18,0
32.58,-10.18,-10.18,0
32.603,-10.3,-10.18,0
32.622,,,
32.64,-10.3,-10.18,0
32.66,-10.3,-10.3,0
32.68,-10.3,-10.3,0
32.7,-10.3,-10.3,1
32.722,-10.3,-10.3,1
32.746,-10.3,-10.3,1
32.772,-10.18,-10.3,1
32.792,,,
32.801,-10.3,-10.3,1
32.82,-10.18,-10.3,1
32.841,-10.18,-10.3,1
32.865,-10.3,-10.3,1
32.89,-10.3,-10.3,1
32.915,-10.3,-10.3,1
32.935,,,
32.94,-10.3,-10.3,1
32.96,,,
32.981,-10.3,-10.3,1
33.001,-10.3,-10.3,1
33.021,-10.3,-10.3,1
33.041,-9.81,-9.81,1
33.061,-9.2,-9.2,1
33.081,-8.71,-8.47,1
33.101,-8.35,-7.61,1
33.123,-7.61,-6.88,1
33.144,-6.76,-6.51,1
33.164,-6.15,-6.15,1
33.185,,,
33.201,-5.66,-6.02,1
33.221,-5.29,-5.78,1
33.241,-5.05,-5.54,1
33.262,-4.92,-5.54,1
33.281,-4.68,-5.41,1
33.301,-4.56,-5.29,1
33.321,-4.56,-5.29,1
33.341,-4.68,-5.17,1
33.361,-4.56,-5.17,1
33.382,,,
33.402,-4.31,-5.17,0
33.423,-4.31,-5.05,0
33.443,-4.19,-5.05,0
33.462,-4.07,-5.05,0
33.482,-3.95,-4.92,0
33.502,-4.19,-4.92,0
33.522,-4.19,-4.92,0
33.542,-4.07,-4.92,0
33.562,-4.07,-4.92,0
33.583,-4.07,-4.8,0
33.603,-4.07,-4.8,0
33.623,-4.07,-4.8,0
33.644,,,
33.662,-4.07,-4.92,0
33.682,-4.19,-4.92,0
33.703,-4.19,-4.8,0
33.722,-3.95,-4.8,0
33.743,-3.95,-4.8,0
33.762,-4.07,-4.8,0
33.782,-4.07,-4.8,0
33.8,-3.95,-4.68,0
33.821,-3.95,-4.8,0
33.841,,,
33.861,-4.07,-4.8,0
33.881,-4.07,-4.8,0
33.901,-3.95,-4.8,0
33.921,-4.07,-4.8,0
33.941,-4.07,-4.92,0
33.96,-3.95,-4.92,0
33.981,-3.95,-4.8,0
34.001,-3.95,-4.8,0
34.02,-4.07,-4.68,0
34.041,-3.82,-4.68,0
34.062,-3.82,-4.68,0
34.082,-3.82,-4.68,0
34.107,-3.82,-4.68,0
34.127,-3.82,-4.68,0
34.147,-3.82,-4.8,0
34.172,-4.92,-5.66,0
34.193,-6.02,-6.63,0
34.213,-6.76,-7.37,0
34.237,-7.0,-8.71,0
34.258,-7.73,-9.32,0
34.279,,,
34.293,-8.71,-9.57,0
34.313,-9.32,-9.81,0
34.334,-9.57,-9.81,0
34.354,-9.57,-9.93,0
34.373,-9.81,-9.93,0
34.393,-9.93,-10.06,0
34.413,-9.93,-9.93,0
34.434,-10.06,-10.06,0
34.458,-10.06,-10.06,0
34.483,-10.18,-10.06,0
34.503,,,
34.513,-10.06,-10.18,0
34.533,-10.18,-10.18,0
34.554,-10.18,-10.18,0
34.578,-10.18,-10.18,0
34.602,-10.18,-10.18,0
34.627,-10.3,-10.18,0
34.651,-10.3,-10.18,0
34.672,,,
34.688,-10.18,-10.18,0
34.707,-10.3,-10.18,0
34.728,-10.3,-10.18,0
34.748,-10.3,-10.18,0
34.77,-10.18,-10.18,0
34.795,-10.3,-10.3,0
34.815,,,
34.828,-10.3,-10.18,0
34.848,-10.3,-10.3,0
34.868,-10.3,-10.3,0
34.889,-10.3,-10.3,0
34.914,-10.3,-10.3,0
34.938,-10.3,-10.3,0
34.963,-10.3,-10.3,0
34.983,,,
34.988,-10.42,-10.3,1
35.008,,,
35.028,-10.3,-10.3,1
35.033,-10.3,-10.3,1
35.057,-10.3,-10.3,1
35.081,-10.3,-10.3,1
35.106,-10.3,-10.3,1
35.127,,,
35.134,-10.3,-10.3,1
35.153,,,
35.174,-10.42,-10.42,1
35.194,-10.42,-10.3,1
35.214,-10.42,-10.3,1
35.234,-10.42,-10.3,1
35.254,-10.42,-10.3,1
35.274,-10.42,-10.42,1
35.295,,,
35.314,-10.42,-10.3,1
35.333,-9.81,-9.69,1
35.353,-9.2,-9.08,1
35.374,-8.59,-8.22,1
35.394,-8.22,-7.25,1
35.413,-7.49,-6.76,1
35.434,-6.63,-6.39,1
35.451,,,
35.472,-6.15,-6.15,1
35.491,-5.54,-6.02,1
35.511,-5.29,-5.78,1
35.531,-5.05,-5.66,1
35.551,-4.92,-5.41,1
35.571,-4.68,-5.29,1
35.591,-4.56,-5.29,1
35.611,-4.68,-5.17,1
35.631,-4.56,-5.17,1
35.651,-4.44,-5.05,1
35.671,-4.31,-5.05,0
35.692,-4.19,-5.05,0
35.712,,,
35.731,-4.19,-5.17,0
35.752,-4.07,-5.05,0
35.772,-4.07,-5.05,0
35.791,-4.07,-4.92,0
35.811,-3.95,-4.92,0
35.831,-3.95,-4.92,0
35.851,-4.07,-4.92,0
35.868,-4.07,-4.8,0
35.889,-3.95,-4.8,0
35.909,,,
35.929,-3.95,-4.8,0
35.949,-4.07,-4.92,0
35.969,-4.07,-4.92,0
35.988,-3.95,-4.92,0
36.008,-3.95,-4.8,0
36.029,-3.82,-4.8,0
36.048,-3.95,-4.8,0
36.069,-3.95,-4.68,0
36.088,-3.82,-4.8,0
36.109,-3.95,-4.68,0
36.13,-3.95,-4.8,0
36.15,-3.82,-4.8,0
36.175,-3.95,-4.8,0
36.196,-3.95,-4.8,0
36.216,-3.95,-4.8,0
36.241,-3.95,-4.8,0
36.261,-3.82,-4.8,0
36.282,-3.82,-4.68,0
36.306,-3.82,-4.68,0
36.327,-3.82,-4.68,0
36.347,,,
36.362,-3.82,-4.68,0
36.382,-3.82,-4.68,0
36.403,-3.82,-4.68,0
36.422,-3.82,-4.8,0
36.444,-4.07,-4.92,0
36.463,-5.29,-6.02,0
36.482,,,
36.502,-6.27,-6.88,0
36.522,-6.76,-7.86,0
36.542,-7.25,-8.96,0
36.563,-7.98,-9.45,0
36.582,-8.96,-9.69,0
36.602,-9.45,-9.81,0
36.622,-9.69,-9.93,0
36.642,-9.81,-10.06,0
36.662,-9.93,-10.06,0
36.682,-10.06,-10.06,0
36.702,-10.06,-10.06,0
36.725,-10.18,-10.06,0
36.748,,,
36.763,-10.18,-10.18,0
36.783,-10.18,-10.18,0
36.805,-10.18,-10.18,0
36.824,-10.3,-10.18,0
36.846,-10.3,-10.18,0
36.87,-10.3,-10.18,0
36.889,-10.3,-10.18,0
36.917,,,
36.925,-10.3,-10.18,0
36.942,-10.3,-10.18,0
36.965,-10.3,-10.18,0
36.99,-10.3,-10.18,0
37.015,-10.3,-10.3,0
37.035,-10.3,-10.3,0
37.057,,,
37.063,,,
37.083,-10.18,-10.18,0
37.103,-10.3,-10.18,0
37.104,-10.3,-10.3,0
37.134,-10.3,-10.3,0
37.153,-10.3,-10.18,0
37.183,-10.3,-10.3,0
37.208,-10.3,-10.18,0
37.227,,,
37.227,,,
37.244,-10.3,-10.18,0
37.264,-10.3,-10.18,1
37.285,-10.3,-10.18,1
37.309,-10.3,-10.3,1
37.33,-10.3,-10.3,1
37.351,-10.3,-10.3,1
37.371,,,
37.384,-10.3,-10.3,1
37.407,-10.3,-10.3,1
37.425,-10.3,-10.3,1
37.447,-10.42,-10.3,1
37.469,-10.42,-10.3,1
37.494,-10.42,-10.3,1
37.519,-10.42,-10.3,1
37.541,,,
37.563,-10.3,-10.3,1
37.58,-10.42,-10.3,1
37.599,-10.06,-9.93,1
37.62,-9.45,-9.32,1
37.64,-8.83,-8.59,1
37.66,-8.47,-7.61,1
37.68,-7.86,-7.0,1
37.699,-7.0,-6.63,1
37.72,,,
37.739,-6.39,-6.27,1
37.761,-5.9,-6.02,1
37.779,-5.41,-5.9,1
37.8,-5.17,-5.66,1
37.82,-4.92,-5.54,1
37.841,-4.8,-5.41,1
37.86,-4.56,-5.29,1
37.88,-4.56,-5.29,1
37.899,-4.68,-5.17,1
