Time (s),Pressure 1 (kPa),Pressure 2 (kPa),Switch State
0.208,-7.61,-7.86,1
0.229,-7.49,-7.86,1
0.248,-7.61,-7.86,1
0.268,-7.61,-7.86,1
0.29,-7.61,-7.86,1
0.308,-7.61,-7.86,1
0.329,-7.49,-7.86,1
0.352,-7.61,-7.86,1
0.368,-7.49,-7.86,1
0.388,-7.61,-7.86,1
0.41,-7.61,-7.86,1
0.428,-7.61,-7.86,1
0.452,-7.49,-7.86,1
0.468,-7.61,-7.86,1
0.489,-7.49,-7.86,1
0.508,-7.61,-7.86,1
0.53,-7.49,-7.86,1
0.55,-7.61,-7.86,1
0.568,-7.49,-7.86,1
0.588,-7.49,-7.86,1
0.61,-7.49,-7.98,1
0.632,-7.61,-7.86,1
0.65,-7.49,-7.86,1
0.671,-7.61,-7.86,1
0.695,-7.61,-7.86,1
0.712,-7.61,-7.86,1
0.731,-7.61,-7.86,1
0.753,-7.61,-7.86,1
0.772,-7.61,-7.86,1
0.791,-7.61,-7.86,1
0.811,-7.49,-7.86,1
0.83,-7.49,-7.86,1
0.852,-7.61,-7.86,1
0.871,-7.49,-7.86,1
0.893,-7.61,-7.86,1
0.912,-7.61,-7.86,1
0.932,-7.61,-7.86,1
0.952,-7.61,-7.86,1
0.972,-7.49,-7.86,1
0.991,-7.49,-7.98,1
1.01,-7.61,-7.86,1
1.01,-7.61,-7.86,1
1.031,-7.61,-7.86,1
1.051,-7.61,-7.86,1
1.071,-7.61,-7.86,1
1.095,-7.61,-7.86,1
1.111,-7.49,-7.86,1
1.132,-7.61,-7.86,1
1.151,-7.49,-7.86,1
1.172,-7.49,-7.86,1
1.192,-7.49,-7.86,1
1.211,-7.61,-7.86,1
1.231,-7.61,-7.86,1
1.251,-7.49,-7.86,1
1.271,-7.49,-7.86,1
1.291,-7.61,-7.86,1
1.314,-7.61,-7.86,1
1.33,-7.61,-7.86,1
1.351,-7.61,-7.86,1
1.373,-7.49,-7.86,1
1.391,-7.49,-7.86,1
1.414,-7.49,-7.86,1
1.414,-7.61,-7.86,1
1.434,-7.61,-7.86,1
1.454,-7.49,-7.86,1
1.474,-7.49,-7.86,1
1.497,-7.61,-7.86,1
1.515,-7.61,-7.86,1
1.534,-7.49,-7.86,1
1.556,-7.49,-7.98,1
1.575,-7.61,-7.98,1
1.596,-7.49,-7.86,1
1.614,-7.61,-7.98,1
1.64,-7.61,-7.86,1
1.656,-7.61,-7.86,1
1.674,-7.61,-7.86,1
1.694,-7.49,-7.86,1
1.714,-7.61,-7.86,1
1.739,-7.61,-7.86,1
1.755,-7.61,-7.86,1
1.774,-7.61,-7.86,1
1.797,-7.49,-7.86,1
1.814,-7.49,-7.86,1
1.814,-7.49,-7.86,1
1.834,-7.49,-7.86,1
1.856,-7.49,-7.86,1
1.875,-7.49,-7.86,1
1.896,-7.49,-7.86,1
1.914,-7.61,-7.86,1
1.935,-7.61,-7.86,1
1.955,-7.61,-7.86,1
1.974,-7.61,-7.86,1
1.996,-7.61,-7.86,1
2.015,-7.61,-7.86,1
2.034,-7.49,-7.98,1
2.059,-7.49,-7.86,1
2.077,-7.61,-7.86,1
2.096,-7.61,-7.98,1
2.118,-7.49,-7.98,1
2.135,-7.61,-7.86,1
2.154,-7.61,-7.86,1
2.178,-7.61,-7.98,1
2.194,-7.61,-7.86,1
2.219,-7.61,-7.86,1
2.219,-7.49,-7.86,1
2.239,-7.61,-7.86,1
2.26,-7.61,-7.86,1
2.28,-7.61,-7.86,1
2.299,-7.49,-7.86,1
2.323,-7.61,-7.86,1
2.339,-7.61,-7.86,1
2.359,-7.61,-7.86,1
2.379,-7.61,-7.86,1
2.399,-7.61,-7.86,1
2.42,-7.61,-7.86,1
2.439,-7.61,-7.86,1
2.459,-7.49,-7.86,1
2.479,-7.61,-7.98,1
2.499,-7.61,-7.86,1
2.521,-7.61,-7.86,1
2.54,-7.61,-7.86,1
2.564,-7.61,-7.86,1
2.58,-7.61,-7.86,1
2.601,-7.61,-7.86,1
2.619,-7.61,-7.86,1
2.64,-7.49,-7.86,1
2.662,-7.61,-7.86,1
2.68,-7.61,-7.86,1
2.701,-7.49,-7.86,1
2.722,-7.49,-7.86,1
2.74,-7.61,-7.86,1
2.763,-7.61,-7.86,1
2.78,-7.49,-7.86,1
2.8,-7.49,-7.86,1
2.82,-7.61,-7.86,1
2.845,-7.49,-7.86,1
2.862,-7.61,-7.86,1
2.88,-7.49,-7.86,1
2.901,-7.61,-7.86,1
2.92,-7.61,-7.86,1
2.94,-7.49,-7.86,1
2.961,-7.49,-7.86,1
2.983,-7.61,-7.86,1
3.003,-7.61,-7.86,1
3.024,-7.61,-7.86,1
3.046,-7.61,-7.86,1
3.064,-7.61,-7.86,1
3.086,-7.61,-7.86,1
3.108,-7.49,-7.86,1
3.124,-7.61,-7.86,1
3.146,-7.61,-7.86,1
3.167,-7.61,-7.86,1
3.184,-7.49,-7.86,1
3.207,-7.49,-7.86,1
3.225,-7.49,-7.86,1
3.246,-7.61,-7.86,1
3.266,-7.61,-7.86,1
3.285,-7.49,-7.86,1
3.307,-7.49,-7.86,1
3.324,-7.49,-7.86,1
3.35,-7.61,-7.86,1
3.366,-7.61,-7.86,1
3.386,-7.49,-7.86,1
3.405,-7.49,-7.86,1
3.426,-7.37,-7.86,1
3.426,-7.0,-7.86,1
3.446,-6.88,-7.86,1
3.467,-6.88,-7.98,1
3.487,-7.0,-7.98,1
3.507,-7.12,-7.86,1
3.526,-7.25,-7.98,1
3.547,-7.37,-7.86,1
3.568,-7.37,-7.86,1
3.586,-7.49,-7.86,1
3.606,-7.37,-7.86,1
3.63,-7.49,-7.86,1
3.646,-7.49,-7.86,1
3.669,-7.49,-7.86,1
3.686,-7.49,-7.86,1
3.708,-7.49,-7.98,1
3.73,-7.49,-7.86,1
3.746,-7.49,-7.98,1
3.771,-7.49,-7.86,1
3.787,-7.49,-8.22,1
3.813,-7.49,-8.59,1
3.829,-7.49,-8.83,1
3.849,-7.49,-9.08,1
3.87,-7.49,-8.83,1
3.89,-7.61,-8.59,1
3.913,-7.49,-8.47,1
3.93,-7.49,-8.22,1
3.95,-7.49,-8.22,1
3.97,-7.49,-8.1,1
3.993,-7.61,-7.98,1
4.012,-7.49,-7.98,1
4.029,-7.49,-7.98,1
4.049,-7.61,-7.98,1
4.069,-7.61,-7.98,1
4.091,-7.61,-7.86,1
4.113,-7.49,-7.98,1
4.13,-7.61,-7.98,1
4.151,-7.49,-7.86,1
4.172,-7.49,-7.98,1
4.19,-7.49,-7.86,1
4.213,-7.49,-7.98,1
4.234,-7.49,-7.86,1
4.258,-7.61,-7.98,1
4.274,-7.49,-7.86,1
4.294,-7.61,-7.86,1
4.315,-7.61,-7.98,1
4.335,-7.61,-7.86,1
4.354,-7.61,-7.86,1
4.374,-7.61,-7.86,1
4.395,-7.61,-7.98,1
4.414,-7.49,-7.98,1
4.434,-7.61,-7.86,1
4.454,-7.49,-7.98,1
4.474,-7.61,-7.98,1
4.494,-7.49,-7.86,1
4.514,-7.49,-7.98,1
4.535,-7.61,-7.98,1
4.554,-7.49,-7.98,1
4.574,-7.61,-7.86,1
4.594,-7.61,-7.86,1
4.614,-7.49,-7.86,1
4.635,-7.61,-7.98,1
4.636,-7.61,-7.86,1
4.656,-7.61,-7.86,1
4.677,-7.61,-7.86,1
4.697,-7.49,-7.98,1
4.717,-7.49,-7.86,1
4.737,-7.61,-7.86,1
4.757,-7.49,-7.86,1
4.777,-7.61,-7.86,1
4.797,-7.37,-7.86,1
4.817,-6.02,-7.73,1
4.837,-4.92,-6.88,1
4.857,-4.19,-5.9,1
4.877,-3.46,-5.29,1
4.897,-2.85,-4.68,1
4.917,-2.6,-4.19,1
4.937,-2.24,-3.7,1
4.957,-1.87,-3.34,1
4.977,-1.75,-3.09,1
4.997,-1.63,-2.97,1
5.017,-1.38,-2.72,0
5.037,-1.01,-2.6,0
5.037,-1.01,-2.48,0
5.057,-0.89,-2.36,0
5.078,-0.77,-2.24,0
5.097,-0.77,-2.11,0
5.117,-0.77,-2.11,0
5.137,-0.65,-2.11,0
5.157,-0.53,-1.99,0
5.177,-0.65,-1.99,0
5.197,-0.53,-1.87,0
5.217,-0.4,-1.87,0
5.237,-0.4,-1.87,0
5.258,-0.53,-1.87,0
5.277,-0.53,-1.87,0
5.298,-0.53,-1.75,0
5.317,-0.53,-1.75,0
5.338,-0.28,-1.75,0
5.357,-0.16,-1.75,0
5.377,-0.16,-1.75,0
5.397,-0.28,-1.75,0
5.418,-2.48,-3.58,0
5.437,-4.44,-5.29,0
5.437,-6.02,-7.98,0
5.457,-8.47,-9.57,0
5.478,-9.69,-10.18,0
5.497,-10.3,-10.54,0
5.517,-10.67,-10.79,0
5.538,-10.91,-10.91,0
5.558,-11.03,-11.03,0
5.578,-11.03,-11.16,0
5.598,-11.16,-11.16,0
5.617,-11.28,-11.16,0
5.638,-11.28,-11.16,0
5.657,-11.28,-11.16,0
5.678,-11.28,-11.28,0
5.698,-11.28,-11.28,0
5.718,-11.28,-11.28,0
5.737,-11.28,-11.28,0
5.758,-11.28,-11.28,0
5.777,-11.4,-11.28,0
5.798,-11.4,-11.28,1
5.817,-11.4,-11.28,1
5.838,-11.4,-11.28,1
5.838,-11.4,-11.4,1
5.858,-11.4,-11.28,1
5.878,-11.4,-11.28,1
5.898,-11.4,-11.4,1
5.919,-11.4,-11.28,1
5.939,-11.4,-11.4,1
5.958,-11.4,-11.28,1
5.978,-11.03,-10.91,1
5.998,-10.3,-10.18,1
6.018,-9.32,-8.59,1
6.038,-7.61,-7.25,1
6.059,-6.02,-6.27,1
6.079,-4.92,-5.54,1
6.098,-4.19,-4.92,1
6.119,-3.58,-4.44,1
6.138,-3.34,-3.95,1
6.158,-2.85,-3.58,1
6.178,-2.36,-3.34,1
6.198,-2.11,-3.09,1
6.218,-1.75,-3.09,0
6.238,-1.63,-2.97,0
6.259,-1.38,-2.72,0
6.279,-1.26,-2.6,0
6.299,-1.26,-2.36,0
6.321,-1.26,-2.24,0
6.34,-1.26,-2.24,0
6.358,-0.77,-2.24,0
6.379,-0.77,-2.24,0
6.399,-0.77,-2.11,0
6.421,-0.77,-2.11,0
6.441,-0.77,-1.99,0
6.459,-0.53,-1.87,0
6.479,-0.65,-1.87,0
6.5,-0.53,-1.87,0
6.52,-0.65,-1.99,0
6.54,-0.65,-1.99,0
6.565,-0.28,-1.87,0
6.579,-0.28,-1.87,0
6.6,-0.4,-1.87,0
6.62,-2.24,-3.7,0
6.641,-4.31,-5.41,0
6.641,-5.9,-7.98,0
6.662,-8.1,-9.57,0
6.683,-9.45,-10.18,0
6.703,-10.18,-10.54,0
6.725,-10.79,-10.79,0
6.741,-10.91,-11.03,0
6.763,-11.03,-11.03,0
6.784,-11.03,-11.16,0
6.801,-11.16,-11.16,0
6.821,-11.16,-11.16,0
6.844,-11.28,-11.16,0
6.862,-11.28,-11.28,0
6.885,-11.28,-11.28,0
6.901,-11.4,-11.28,0
6.927,-11.4,-11.28,0
6.943,-11.4,-11.28,0
6.963,-11.28,-11.28,0
6.982,-11.4,-11.28,1
7.009,-11.4,-11.28,1
7.025,-11.4,-11.28,1
7.041,-11.4,-11.4,1
7.041,-11.28,-11.28,1
7.063,-11.4,-11.28,1
7.083,-11.4,-11.28,1
7.107,-11.4,-11.4,1
7.123,-11.4,-11.4,1
7.146,-11.4,-11.4,1
7.165,-11.4,-11.4,1
7.183,-11.03,-10.79,1
7.201,-10.42,-9.81,1
7.223,-9.57,-8.22,1
7.242,-7.98,-7.0,1
7.262,-6.51,-5.9,1
7.281,-5.05,-5.17,1
7.302,-4.31,-4.68,1
7.323,-3.82,-4.31,1
7.342,-3.46,-3.82,1
7.363,-2.97,-3.58,1
7.383,-2.36,-3.34,1
7.407,-2.11,-3.09,1
7.424,-1.87,-2.97,0
7.444,-1.87,-2.72,0
7.446,-1.5,-2.6,0
7.467,-1.14,-2.6,0
7.486,-1.26,-2.36,0
7.506,-1.26,-2.24,0
7.527,-1.38,-2.24,0
7.546,-1.01,-2.11,0
7.566,-0.65,-2.11,0
7.587,-0.77,-1.99,0
7.606,-0.77,-1.99,0
7.626,-1.01,-1.99,0
7.647,-0.77,-1.87,0
7.669,-0.53,-1.87,0
7.686,-0.77,-1.87,0
7.706,-0.65,-1.87,0
7.729,-0.77,-1.87,0
7.746,-0.28,-1.75,0
7.767,-0.16,-1.75,0
7.786,-0.4,-1.99,0
7.811,-2.48,-3.7,0
7.829,-4.56,-5.41,0
7.847,-6.15,-8.1,0
7.847,-8.47,-9.57,0
7.871,-9.57,-10.18,0
7.889,-10.18,-10.54,0
7.914,-10.79,-10.79,0
7.928,-10.91,-11.03,0
7.948,-11.03,-11.03,0
7.97,-11.03,-11.16,0
7.988,-11.16,-11.16,0
8.012,-11.28,-11.16,0
8.028,-11.28,-11.16,0
8.053,-11.28,-11.28,0
8.069,-11.28,-11.28,0
8.087,-11.28,-11.16,0
8.111,-11.4,-11.28,0
8.128,-11.28,-11.28,0
8.153,-11.28,-11.28,0
8.168,-11.4,-11.28,1
8.195,-11.4,-11.28,1
8.212,-11.4,-11.4,1
8.228,-11.28,-11.4,1
8.249,-11.4,-11.28,1
8.249,-11.4,-11.4,1
8.27,-11.52,-11.4,1
8.291,-11.4,-11.28,1
8.313,-11.4,-11.4,1
8.331,-11.52,-11.4,1
8.352,-11.4,-11.28,1
8.37,-11.03,-10.91,1
8.39,-10.3,-9.81,1
8.413,-9.45,-8.22,1
8.43,-7.73,-7.0,1
8.449,-6.39,-5.9,1
8.471,-5.05,-5.29,1
8.496,-4.19,-4.8,1
8.512,-3.7,-4.31,1
8.532,-3.21,-3.95,1
8.551,-2.97,-3.46,1
8.578,-2.36,-3.21,1
8.595,-1.99,-3.09,1
8.611,-1.75,-2.97,0
8.63,-1.63,-2.85,0
8.652,-1.63,-2.72,0
8.677,-1.14,-2.48,0
8.693,-1.14,-2.36,0
8.718,-1.14,-2.24,0
8.734,-1.26,-2.24,0
8.753,-1.01,-2.11,0
8.776,-0.53,-2.11,0
8.795,-0.77,-2.11,0
8.813,-0.77,-1.99,0
8.833,-0.89,-1.87,0
8.853,-0.77,-1.87,0
8.876,-0.53,-1.75,0
8.894,-0.53,-1.75,0
8.913,-0.53,-1.87,0
8.933,-0.77,-1.75,0
8.957,-0.53,-1.75,0
8.974,-0.16,-1.63,0
8.996,-0.53,-1.63,0
9.012,-2.24,-3.46,0
9.033,-4.31,-5.17,0
9.053,-5.78,-7.98,0
9.053,-7.98,-9.57,0
9.075,-9.32,-10.18,0
9.096,-10.18,-10.54,0
9.113,-10.67,-10.79,0
9.134,-11.03,-10.91,0
9.161,-11.03,-11.03,0
9.178,-11.03,-11.16,0
9.194,-11.28,-11.16,0
9.214,-11.28,-11.16,0
9.235,-11.28,-11.16,0
9.261,-11.28,-11.28,0
9.273,-11.28,-11.28,0
9.295,-11.4,-11.28,0
9.314,-11.4,-11.28,0
9.334,-11.28,-11.28,0
9.354,-11.28,-11.28,0
9.378,-11.4,-11.28,1
9.395,-11.4,-11.4,1
9.413,-11.4,-11.28,1
9.433,-11.28,-11.4,1
9.453,-11.28,-11.4,1
9.477,-11.4,-11.4,1
9.493,-11.4,-11.4,1
9.514,-11.4,-11.4,1
9.534,-11.4,-11.4,1
9.553,-11.4,-11.4,1
9.575,-11.4,-11.28,1
9.596,-10.79,-10.79,1
9.616,-10.18,-9.93,1
9.633,-8.83,-8.22,1
9.655,-7.0,-7.0,1
9.674,-5.78,-5.9,1
9.696,-4.56,-5.17,1
9.715,-3.95,-4.68,1
9.735,-3.46,-4.19,1
9.757,-3.21,-3.82,1
9.775,-2.72,-3.46,1
9.794,-2.11,-3.21,1
9.814,-1.87,-3.09,1
9.834,-1.75,-2.97,0
9.855,-1.63,-2.72,0
9.855,-1.14,-2.6,0
9.875,-1.14,-2.48,0
9.897,-1.26,-2.24,0
9.916,-1.26,-2.24,0
9.941,-1.01,-2.24,0
9.957,-0.77,-2.11,0
9.978,-0.77,-2.11,0
9.996,-0.89,-1.99,0
10.016,-1.01,-1.87,0
10.035,-0.77,-1.99,0
10.056,-0.65,-1.87,0
10.076,-0.77,-1.87,0
10.097,-0.65,-1.99,0
10.12,-0.77,-1.87,0
10.135,-0.28,-1.75,0
10.156,-0.28,-1.75,0
10.179,-1.87,-3.09,0
10.196,-3.95,-4.8,0
10.216,-5.41,-7.49,0
10.239,-6.51,-9.32,0
10.255,-8.47,-10.18,0
10.276,-9.69,-10.54,0
10.296,-10.42,-10.79,0
10.316,-10.79,-10.91,0
10.336,-11.03,-11.03,0
10.356,-11.03,-11.16,0
10.378,-11.03,-11.16,0
10.396,-11.28,-11.16,0
10.416,-11.28,-11.28,0
10.438,-11.28,-11.28,0
10.456,-11.28,-11.28,0
10.48,-11.28,-11.28,0
10.496,-11.4,-11.28,0
10.516,-11.28,-11.28,0
10.537,-11.28,-11.28,0
10.555,-11.4,-11.28,1
10.575,-11.4,-11.28,1
10.596,-11.4,-11.4,1
10.616,-11.28,-11.28,1
10.639,-11.4,-11.28,1
10.656,-11.4,-11.4,1
10.656,-11.4,-11.4,1
10.678,-11.4,-11.4,1
10.697,-11.4,-11.4,1
10.716,-11.4,-11.28,1
10.737,-10.91,-10.79,1
10.758,-10.3,-9.69,1
10.779,-9.2,-7.86,1
10.797,-7.37,-6.63,1
10.819,-5.78,-5.66,1
10.836,-4.8,-5.05,1
10.856,-4.07,-4.68,1
10.88,-3.58,-4.19,1
10.897,-3.21,-3.82,1
10.923,-2.48,-3.46,1
10.936,-2.24,-3.09,1
10.956,-1.87,-2.97,0
10.98,-1.87,-2.85,0
10.996,-1.63,-2.72,0
11.023,-1.26,-2.6,0
11.04,-1.26,-2.36,0
11.056,-1.26,-2.24,0
11.078,-1.26,-2.24,0
11.096,-0.89,-2.11,0
11.118,-0.77,-2.11,0
11.136,-0.77,-2.11,0
11.157,-0.89,-1.99,0
11.18,-1.01,-1.75,0
11.196,-0.65,-1.87,0
11.218,-0.65,-1.75,0
11.238,-0.53,-1.75,0
11.262,-0.89,-1.87,0
11.28,-0.53,-1.75,0
11.298,-0.16,-1.63,0
11.316,-0.53,-1.63,0
11.336,-1.38,-2.72,0
11.356,-3.58,-4.44,0
11.38,-5.29,-6.51,0
11.396,-7.12,-8.96,0
11.423,-9.2,-9.93,0
11.439,-10.06,-10.42,0
11.456,-10.54,-10.67,0
11.456,-10.91,-10.91,0
11.478,-11.03,-11.03,0
11.497,-11.03,-11.16,0
11.517,-11.16,-11.16,0
11.539,-11.28,-11.28,0
11.557,-11.28,-11.28,0
11.578,-11.28,-11.28,0
11.596,-11.28,-11.28,0
11.623,-11.28,-11.28,0
11.638,-11.4,-11.28,0
11.661,-11.28,-11.28,0
11.68,-11.28,-11.28,0
11.696,-11.4,-11.28,1
11.717,-11.4,-11.4,1
11.74,-11.4,-11.4,1
11.757,-11.4,-11.4,1
11.777,-11.4,-11.4,1
11.798,-11.4,-11.4,1
11.819,-11.4,-11.4,1
11.836,-11.4,-11.4,1
11.857,-11.4,-11.4,1
11.857,-11.4,-11.4,1
11.879,-11.16,-10.91,1
11.898,-10.42,-10.06,1
11.918,-9.45,-8.22,1
11.938,-7.73,-6.88,1
11.961,-5.9,-5.9,1
11.979,-4.8,-5.17,1
11.998,-4.19,-4.68,1
12.017,-3.58,-4.31,1
12.037,-3.34,-3.82,1
12.061,-2.6,-3.46,1
12.08,-2.11,-3.21,1
12.098,-1.87,-2.97,0
12.123,-1.75,-2.85,0
12.139,-1.5,-2.72,0
12.157,-1.26,-2.48,0
12.178,-1.14,-2.36,0
12.198,-1.14,-2.36,0
12.221,-1.26,-2.24,0
12.239,-0.89,-2.24,0
12.262,-0.77,-2.24,0
12.283,-0.77,-2.11,0
12.303,-0.77,-2.11,0
12.324,-1.01,-1.99,0
12.346,-0.77,-1.87,0
12.363,-0.53,-1.87,0
12.384,-0.65,-1.99,0
12.403,-0.77,-1.87,0
12.424,-0.53,-1.87,0
12.446,-0.28,-1.87,0
12.463,-0.53,-1.75,0
12.483,-1.26,-2.6,0
12.508,-3.34,-4.31,0
12.525,-5.17,-6.63,0
12.543,-6.88,-8.96,0
12.562,-9.08,-9.93,0
12.582,-10.06,-10.42,0
12.603,-10.54,-10.79,0
12.624,-10.91,-10.91,0
12.646,-11.03,-11.03,0
12.668,-11.03,-11.16,0
12.668,-11.16,-11.16,0
12.688,-11.28,-11.16,0
12.709,-11.4,-11.16,0
12.728,-11.28,-11.28,0
12.752,-11.28,-11.28,0
12.77,-11.4,-11.28,0
12.795,-11.28,-11.28,0
12.811,-11.28,-11.28,0
12.828,-11.28,-11.28,0
12.849,-11.4,-11.28,1
12.87,-11.4,-11.28,1
12.895,-11.4,-11.28,1
12.911,-11.4,-11.28,1
12.929,-11.4,-11.4,1
12.952,-11.4,-11.4,1
12.968,-11.4,-11.4,1
12.995,-11.4,-11.4,1
13.011,-11.4,-11.4,1
13.028,-11.4,-11.4,1
13.051,-11.16,-11.03,1
13.07,-10.54,-10.18,1
13.07,-9.69,-8.59,1
13.095,-8.96,-7.12,1
13.111,-7.37,-6.02,1
13.131,-5.9,-5.29,1
13.153,-4.68,-4.8,1
13.171,-4.07,-4.31,1
13.191,-3.58,-3.82,1
13.211,-3.34,-3.46,1
13.231,-2.72,-3.34,1
13.254,-2.11,-3.09,0
13.271,-1.87,-2.85,0
13.295,-1.75,-2.72,0
13.312,-1.63,-2.6,0
13.332,-1.26,-2.36,0
13.354,-1.26,-2.24,0
13.37,-1.26,-2.11,0
13.395,-1.26,-2.11,0
13.412,-1.01,-2.11,0
13.431,-0.77,-1.99,0
13.451,-0.77,-1.87,0
13.471,-0.89,-1.87,0
13.495,-1.01,-1.75,0
13.511,-0.65,-1.75,0
13.533,-0.65,-1.87,0
13.551,-0.65,-1.75,0
13.572,-0.65,-1.75,0
13.594,-0.65,-1.75,0
13.612,-0.28,-1.63,0
13.635,-0.77,-2.24,0
13.653,-2.85,-3.95,0
13.676,-4.8,-5.66,0
13.692,-6.51,-8.35,0
13.713,-8.59,-9.81,0
13.732,-9.81,-10.3,0
13.752,-10.54,-10.67,0
13.774,-10.91,-10.91,0
13.791,-10.91,-11.03,0
13.814,-10.91,-11.16,0
13.831,-11.16,-11.16,0
13.853,-11.28,-11.16,0
13.873,-11.28,-11.28,0
13.873,-11.28,-11.28,0
13.896,-11.28,-11.28,0
13.915,-11.4,-11.28,0
13.935,-11.4,-11.28,0
13.956,-11.28,-11.28,0
13.974,-11.28,-11.28,0
13.997,-11.4,-11.28,0
14.014,-11.4,-11.28,1
14.036,-11.28,-11.4,1
14.055,-11.28,-11.28,1
14.078,-11.4,-11.28,1
14.096,-11.4,-11.28,1
14.113,-11.4,-11.4,1
14.133,-11.4,-11.4,1
14.154,-11.4,-11.4,1
14.174,-11.4,-11.4,1
14.196,-11.28,-11.16,1
14.214,-10.67,-10.42,1
14.233,-10.06,-8.96,1
14.256,-9.2,-7.37,1
14.274,-7.73,-6.15,1
14.274,-6.15,-5.41,1
14.296,-5.17,-4.92,1
14.315,-4.07,-4.31,1
14.337,-3.58,-3.95,1
14.356,-3.21,-3.58,1
14.379,-2.97,-3.21,1
14.396,-2.48,-3.09,0
14.414,-1.87,-2.97,0
14.435,-1.75,-2.72,0
14.458,-1.5,-2.6,0
14.475,-1.5,-2.48,0
14.496,-1.26,-2.24,0
14.517,-1.14,-2.24,0
14.535,-1.14,-2.24,0
14.558,-1.14,-2.11,0
14.575,-1.01,-2.11,0
14.597,-0.65,-1.99,0
14.616,-0.77,-1.87,0
14.636,-0.77,-1.99,0
14.658,-0.89,-1.99,0
14.675,-0.89,-1.75,0
14.696,-0.53,-1.87,0
14.716,-0.77,-1.75,0
14.74,-0.65,-1.75,0
14.757,-0.65,-1.75,0
14.775,-0.53,-1.87,0
14.797,-2.6,-3.58,0
14.815,-4.68,-5.17,0
14.842,-6.51,-7.25,0
14.855,-8.59,-9.2,0
14.876,-9.93,-10.18,0
14.896,-10.54,-10.54,0
14.917,-10.67,-10.79,0
14.935,-10.91,-11.03,0
14.956,-11.16,-11.03,0
14.979,-11.28,-11.16,0
14.996,-11.28,-11.16,0
15.016,-11.28,-11.16,0
15.035,-11.28,-11.16,0
15.06,-11.4,-11.28,0
15.076,-11.4,-11.28,0
15.099,-11.28,-11.28,0
15.119,-11.28,-11.28,0
15.137,-11.4,-11.28,0
15.161,-11.4,-11.28,0
15.177,-11.4,-11.28,1
15.197,-11.28,-11.28,1
15.22,-11.4,-11.4,1
15.237,-11.4,-11.28,1
15.257,-11.4,-11.28,1
15.278,-11.4,-11.4,1
15.297,-11.4,-11.4,1
15.32,-11.4,-11.4,1
15.338,-11.4,-11.4,1
15.357,-11.28,-11.16,1
15.38,-10.79,-10.67,1
15.398,-10.06,-9.08,1
15.421,-8.71,-7.37,1
15.436,-6.88,-6.27,1
15.461,-5.41,-5.66,1
15.478,-4.56,-4.92,1
15.499,-3.95,-4.44,1
15.521,-3.34,-3.95,1
15.538,-2.97,-3.58,1
15.563,-2.72,-3.34,1
15.585,-2.48,-3.21,0
15.6,-1.99,-2.85,0
15.622,-1.75,-2.72,0
15.639,-1.5,-2.6,0
15.661,-1.5,-2.36,0
15.678,-1.14,-2.24,0
15.698,-1.01,-2.24,0
15.72,-1.14,-2.11,0
15.745,-1.01,-2.11,0
15.762,-0.89,-1.99,0
15.779,-0.89,-1.87,0
15.799,-0.65,-1.87,0
15.82,-0.65,-1.87,0
15.845,-0.89,-1.75,0
15.861,-0.65,-1.87,0
15.879,-0.53,-1.75,0
15.88,-0.77,-1.63,0
15.903,-0.65,-1.75,0
15.921,-0.53,-1.63,0
15.944,-0.65,-1.63,0
15.96,-2.24,-3.58,0
15.981,-4.31,-5.41,0
16.001,-5.9,-8.1,0
16.021,-8.1,-9.69,0
16.043,-9.69,-10.42,0
16.062,-10.42,-10.67,0
16.081,-10.67,-10.91,0
16.1,-10.91,-11.03,0
16.12,-11.03,-11.16,0
16.145,-11.16,-11.03,0
16.162,-11.28,-11.28,0
16.181,-11.28,-11.16,0
16.2,-11.28,-11.28,0
16.22,-11.4,-11.28,0
16.241,-11.4,-11.28,0
16.266,-11.28,-11.28,0
16.28,-11.28,-11.28,0
16.3,-11.4,-11.28,0
16.32,-11.4,-11.28,0
16.34,-11.4,-11.28,0
16.36,-11.28,-11.28,1
16.38,-11.28,-11.4,1
16.401,-11.4,-11.28,1
16.42,-11.4,-11.28,1
16.44,-11.4,-11.4,1
16.461,-11.4,-11.4,1
16.48,-11.4,-11.4,1
16.5,-11.4,-11.4,1
16.521,-11.28,-11.28,1
16.541,-10.79,-10.67,1
16.56,-10.06,-9.45,1
16.58,-8.59,-7.49,1
16.6,-6.76,-6.39,1
16.621,-5.54,-5.78,1
16.641,-4.56,-5.05,1
16.66,-3.82,-4.44,1
16.68,-3.34,-4.07,1
16.701,-3.09,-3.58,1
16.721,-2.72,-3.34,1
16.741,-2.48,-3.21,0
16.76,-1.87,-2.97,0
16.781,-1.75,-2.85,0
16.801,-1.63,-2.72,0
16.82,-1.5,-2.48,0
16.841,-1.26,-2.36,0
16.861,-1.14,-2.36,0
16.881,-1.26,-2.24,0
16.901,-1.01,-2.24,0
16.921,-0.89,-2.11,0
16.941,-0.89,-1.99,0
16.961,-0.77,-1.99,0
16.981,-0.89,-1.87,0
17.001,-1.01,-1.87,0
17.021,-0.77,-1.87,0
17.041,-0.53,-1.87,0
17.061,-0.77,-1.75,0
17.081,-0.65,-1.75,0
17.102,-0.53,-1.63,0
17.122,-0.53,-1.75,0
17.142,-1.87,-3.21,0
17.161,-4.07,-5.05,0
17.182,-5.54,-7.73,0
17.202,-7.86,-9.45,0
17.222,-9.32,-10.3,0
17.242,-10.3,-10.54,0
17.262,-10.79,-10.79,0
17.282,-10.79,-10.91,0
17.302,-11.03,-11.03,0
17.322,-11.16,-11.16,0
17.342,-11.28,-11.16,0
17.362,-11.16,-11.16,0
17.382,-11.28,-11.28,0
17.402,-11.28,-11.28,0
17.422,-11.28,-11.28,0
17.441,-11.28,-11.28,0
17.462,-11.28,-11.28,0
17.482,-11.4,-11.28,0
17.502,-11.4,-11.28,0
17.522,-11.28,-11.28,0
17.543,-11.28,-11.28,1
17.562,-11.4,-11.4,1
17.583,-11.4,-11.28,1
17.603,-11.4,-11.4,1
17.623,-11.4,-11.4,1
17.643,-11.4,-11.4,1
17.662,-11.4,-11.4,1
17.683,-11.4,-11.4,1
17.702,-11.4,-11.28,1
17.723,-10.91,-10.79,1
17.742,-10.18,-9.57,1
17.763,-9.2,-7.86,1
17.783,-7.37,-6.63,1
17.803,-5.9,-5.78,1
17.822,-4.8,-5.17,1
17.843,-4.19,-4.56,1
17.862,-3.46,-4.07,1
17.883,-3.09,-3.7,1
17.883,-2.72,-3.46,1
17.903,-2.6,-3.09,0
17.923,-2.11,-2.97,0
17.944,-1.87,-2.72,0
17.963,-1.63,-2.6,0
17.984,-1.5,-2.48,0
18.003,-1.38,-2.36,0
18.023,-1.01,-2.36,0
18.043,-1.14,-2.36,0
18.063,-1.14,-2.24,0
18.083,-1.01,-2.11,0
18.103,-1.01,-1.99,0
18.124,-0.77,-1.87,0
18.143,-0.77,-1.87,0
18.163,-0.89,-1.99,0
18.183,-0.89,-1.87,0
18.203,-0.65,-1.87,0
18.223,-0.77,-1.87,0
18.244,-0.65,-1.75,0
18.263,-0.53,-1.75,0
18.283,-0.53,-1.75,0
18.283,-1.5,-3.09,0
18.304,-3.58,-4.56,0
18.324,-5.29,-6.02,0
18.344,-7.25,-8.47,0
18.364,-9.2,-9.81,0
18.384,-10.18,-10.42,0
18.404,-10.67,-10.67,0
18.424,-10.79,-10.91,0
18.444,-10.91,-11.03,0
18.464,-11.16,-11.16,0
18.484,-11.28,-11.16,0
18.504,-11.16,-11.16,0
18.524,-11.28,-11.16,0
18.544,-11.28,-11.28,0
18.564,-11.4,-11.16,0
18.584,-11.28,-11.28,0
18.604,-11.28,-11.28,0
18.623,-11.28,-11.28,0
18.644,-11.4,-11.28,0
18.664,-11.4,-11.28,0
18.684,-11.4,-11.28,0
18.684,-11.28,-11.28,1
18.705,-11.4,-11.28,1
18.724,-11.4,-11.4,1
18.744,-11.4,-11.4,1
18.764,-11.4,-11.4,1
18.785,-11.4,-11.4,1
18.805,-11.4,-11.4,1
18.825,-11.4,-11.4,1
18.844,-11.03,-10.91,1
18.864,-10.42,-9.81,1
18.884,-9.45,-8.1,1
18.904,-7.61,-6.76,1
18.925,-6.15,-5.9,1
18.945,-5.05,-5.17,1
18.964,-4.31,-4.56,1
18.984,-3.46,-4.07,1
19.004,-3.21,-3.82,1
19.024,-2.97,-3.46,0
19.045,-2.6,-3.21,0
19.064,-2.24,-3.09,0
19.084,-1.75,-2.85,0
19.105,-1.63,-2.72,0
19.125,-1.5,-2.48,0
19.144,-1.38,-2.36,0
19.165,-1.01,-2.36,0
19.186,-1.14,-2.36,0
19.205,-1.26,-2.24,0
19.225,-1.01,-2.11,0
19.245,-1.01,-1.99,0
19.264,-0.77,-1.99,0
19.285,-0.77,-1.99,0
19.305,-1.01,-1.99,0
19.325,-0.89,-1.87,0
19.345,-0.65,-1.87,0
19.365,-0.65,-1.75,0
19.385,-0.77,-1.63,0
19.405,-0.65,-1.75,0
19.425,-0.65,-1.75,0
19.445,-1.14,-2.6,0
19.465,-3.34,-4.56,0
19.485,-5.17,-7.0,0
19.506,-6.88,-9.2,0
19.526,-8.96,-10.06,0
19.546,-10.18,-10.54,0
19.566,-10.67,-10.79,0
19.585,-10.79,-10.91,0
19.605,-11.03,-11.03,0
19.625,-11.03,-11.16,0
19.646,-11.28,-11.16,0
19.666,-11.28,-11.16,0
19.686,-11.28,-11.28,0
19.706,-11.28,-11.28,0
19.726,-11.28,-11.28,0
19.746,-11.28,-11.28,0
19.766,-11.28,-11.28,0
19.785,-11.28,-11.28,0
19.805,-11.4,-11.28,0
19.826,-11.4,-11.4,0
19.846,-11.28,-11.28,0
19.866,-11.28,-11.28,1
19.887,-11.28,-11.28,1
19.907,-11.4,-11.28,1
19.927,-11.4,-11.4,1
19.947,-11.4,-11.4,1
19.968,-11.4,-11.4,1
19.987,-11.4,-11.4,1
20.007,-11.4,-11.4,1
20.027,-11.03,-11.03,1
20.047,-10.42,-10.06,1
20.067,-9.57,-8.22,1
20.087,-7.73,-6.88,1
20.107,-6.15,-6.02,1
20.127,-5.17,-5.17,1
20.147,-4.31,-4.68,1
20.167,-3.58,-4.19,1
20.187,-3.34,-3.82,1
20.207,-2.97,-3.58,1
20.227,-2.6,-3.34,0
20.248,-2.24,-3.09,0
20.267,-1.75,-2.85,0
20.291,-1.75,-2.6,0
20.291,-1.5,-2.48,0
20.315,-1.38,-2.36,0
20.331,-1.26,-2.36,0
20.356,-1.14,-2.36,0
20.373,-1.26,-2.24,0
20.394,-1.26,-2.11,0
20.415,-1.14,-2.11,0
20.431,-0.77,-2.11,0
20.456,-0.89,-1.99,0
20.472,-0.89,-1.99,0
20.495,-1.01,-1.99,0
20.513,-0.89,-1.87,0
20.531,-0.53,-1.87,0
20.556,-0.77,-1.87,0
20.572,-0.77,-1.75,0
20.595,-0.65,-1.75,0
20.614,-1.01,-2.48,0
20.631,-3.21,-4.31,0
20.659,-5.05,-6.51,0
20.675,-6.63,-8.96,0
20.692,-8.71,-10.06,0
20.692,-10.06,-10.42,0
20.712,-10.67,-10.79,0
20.732,-10.79,-10.91,0
20.752,-10.91,-11.03,0
20.775,-11.03,-11.16,0
20.792,-11.28,-11.16,0
20.816,-11.28,-11.16,0
20.833,-11.28,-11.16,0
20.852,-11.28,-11.28,0
20.872,-11.28,-11.28,0
20.892,-11.28,-11.28,0
20.912,-11.28,-11.28,0
20.933,-11.4,-11.28,0
20.958,-11.4,-11.28,0
20.974,-11.28,-11.28,0
20.993,-11.28,-11.28,0
21.016,-11.28,-11.28,1
21.033,-11.28,-11.4,1
21.057,-11.4,-11.28,1
21.073,-11.28,-11.28,1
21.095,-11.4,-11.4,1
21.116,-11.4,-11.4,1
21.136,-11.4,-11.4,1
21.156,-11.4,-11.4,1
21.177,-11.16,-11.03,1
21.196,-10.42,-10.18,1
21.217,-9.69,-8.47,1
21.237,-7.98,-7.12,1
21.256,-6.27,-6.15,1
21.278,-5.29,-5.29,1
21.296,-4.44,-4.68,1
21.315,-3.7,-4.19,1
21.342,-3.46,-3.82,1
21.359,-3.09,-3.46,1
21.377,-2.6,-3.34,0
21.396,-2.36,-3.09,0
21.419,-1.87,-2.85,0
21.438,-1.75,-2.72,0
21.461,-1.63,-2.48,0
21.478,-1.5,-2.36,0
21.496,-1.26,-2.48,0
21.518,-1.26,-2.36,0
21.538,-1.26,-2.24,0
21.563,-1.14,-2.11,0
21.58,-1.14,-1.99,0
21.596,-0.89,-1.99,0
21.619,-0.89,-1.99,0
21.639,-1.01,-1.99,0
21.658,-1.01,-1.87,0
21.681,-0.89,-1.99,0
21.697,-0.65,-1.75,0
21.719,-0.77,-1.75,0
21.736,-0.77,-1.75,0
21.756,-0.65,-1.63,0
21.778,-0.89,-2.24,0
21.797,-2.97,-4.07,0
21.823,-4.92,-6.15,0
21.837,-6.39,-8.71,0
21.856,-8.59,-9.93,0
21.876,-9.93,-10.42,0
21.897,-10.42,-10.67,0
21.898,-10.79,-10.91,0
21.921,-10.91,-11.03,0
21.94,-11.03,-11.16,0
21.961,-11.16,-11.16,0
21.982,-11.16,-11.16,0
21.999,-11.28,-11.16,0
22.02,-11.28,-11.16,0
22.04,-11.28,-11.28,0
22.058,-11.28,-11.28,0
22.081,-11.28,-11.28,0
22.102,-11.28,-11.28,0
22.122,-11.4,-11.28,0
22.138,-11.4,-11.28,0
22.162,-11.28,-11.28,0
22.18,-11.28,-11.28,1
22.2,-11.4,-11.28,1
22.222,-11.4,-11.28,1
22.238,-11.4,-11.4,1
22.263,-11.4,-11.28,1
22.279,-11.4,-11.4,1
22.299,-11.4,-11.4,1
22.327,-11.4,-11.4,1
22.343,-11.28,-11.16,1
22.36,-10.79,-10.42,1
22.379,-10.06,-8.83,1
22.4,-9.2,-7.25,1
22.425,-7.37,-6.27,1
22.441,-5.9,-5.54,1
22.465,-4.92,-4.8,1
22.481,-4.19,-4.31,1
22.503,-3.58,-3.95,1
22.522,-3.21,-3.58,1
22.539,-2.97,-3.34,0
22.562,-2.6,-3.21,0
22.58,-2.36,-2.85,0
22.599,-1.75,-2.72,0
22.621,-1.75,-2.6,0
22.64,-1.63,-2.48,0
22.662,-1.38,-2.36,0
22.68,-1.14,-2.36,0
22.703,-1.26,-2.36,0
22.703,-1.26,-2.24,0
22.723,-1.14,-2.24,0
22.745,-1.01,-1.99,0
22.763,-0.77,-2.11,0
22.784,-0.89,-2.11,0
22.803,-1.01,-1.99,0
22.823,-1.01,-1.99,0
22.847,-0.77,-1.87,0
22.863,-0.65,-1.75,0
22.885,-0.65,-1.87,0
22.903,-0.65,-1.87,0
22.924,-0.77,-1.87,0
22.944,-2.6,-3.95,0
22.965,-4.68,-5.78,0
22.983,-6.15,-8.47,0
23.003,-8.47,-9.93,0
23.023,-9.81,-10.42,0
23.045,-10.42,-10.67,0
23.065,-10.79,-10.91,0
23.083,-10.79,-11.03,0
23.103,-11.03,-11.16,0
23.125,-11.16,-11.16,0
23.146,-11.28,-11.16,0
23.167,-11.16,-11.16,0
23.184,-11.28,-11.16,0
23.208,-11.28,-11.28,0
23.225,-11.28,-11.28,0
23.25,-11.28,-11.28,0
23.264,-11.28,-11.28,0
23.284,-11.4,-11.28,0
23.307,-11.28,-11.28,0
23.325,-11.28,-11.28,0
23.346,-11.28,-11.28,1
23.363,-11.4,-11.28,1
23.387,-11.28,-11.4,1
23.407,-11.4,-11.4,1
23.424,-11.4,-11.28,1
23.447,-11.4,-11.4,1
23.464,-11.4,-11.4,1
23.484,-11.4,-11.4,1
23.511,-11.28,-11.16,1
23.511,-10.67,-10.54,1
23.533,-10.06,-8.71,1
23.552,-8.83,-7.25,1
23.578,-6.88,-6.27,1
23.595,-5.54,-5.41,1
23.612,-4.56,-4.8,1
23.636,-4.07,-4.31,1
23.652,-3.46,-3.82,1
23.678,-2.97,-3.58,1
23.695,-2.72,-3.34,0
23.711,-2.36,-3.09,0
23.732,-2.24,-2.97,0
23.754,-1.75,-2.72,0
23.772,-1.63,-2.48,0
23.795,-1.38,-2.48,0
23.813,-1.38,-2.36,0
23.832,-1.38,-2.24,0
23.855,-1.14,-2.24,0
23.872,-1.26,-2.11,0
23.896,-1.01,-1.99,0
23.913,-1.14,-1.99,0
23.934,-0.89,-1.99,0
23.954,-0.89,-1.87,0
23.978,-0.89,-1.99,0
23.997,-0.89,-1.99,0
24.014,-1.01,-1.87,0
24.036,-0.77,-1.87,0
24.055,-0.65,-1.75,0
24.073,-0.65,-1.75,0
24.097,-0.65,-1.87,0
24.114,-2.48,-3.46,0
24.134,-4.44,-5.29,0
24.158,-5.9,-7.98,0
24.173,-8.1,-9.69,0
24.196,-9.81,-10.3,0
24.214,-10.42,-10.67,0
24.235,-10.79,-10.91,0
24.254,-10.91,-11.03,0
24.273,-11.03,-11.03,0
24.294,-11.16,-11.16,0
24.313,-11.16,-11.28,0
24.313,-11.28,-11.16,0
24.333,-11.28,-11.28,0
24.354,-11.28,-11.28,0
24.373,-11.28,-11.28,0
24.394,-11.4,-11.28,0
24.414,-11.28,-11.28,0
24.433,-11.4,-11.28,0
24.453,-11.4,-11.28,0
24.473,-11.4,-11.28,0
24.493,-11.28,-11.28,1
24.513,-11.28,-11.28,1
24.533,-11.4,-11.28,1
24.553,-11.4,-11.28,1
24.573,-11.4,-11.4,1
24.593,-11.4,-11.28,1
24.613,-11.4,-11.4,1
24.633,-11.4,-11.4,1
24.653,-11.28,-11.28,1
24.673,-10.79,-10.67,1
24.693,-10.18,-9.2,1
24.713,-9.08,-7.73,1
24.734,-7.12,-6.51,1
24.754,-5.66,-5.66,1
24.773,-4.68,-4.92,1
24.793,-4.19,-4.44,1
24.814,-3.58,-3.95,1
24.833,-3.09,-3.58,1
24.853,-2.72,-3.34,0
24.873,-2.24,-3.21,0
24.893,-2.36,-2.85,0
24.914,-1.75,-2.72,0
24.933,-1.63,-2.6,0
24.953,-1.38,-2.36,0
24.973,-1.14,-2.36,0
24.993,-1.26,-2.36,0
25.013,-1.14,-2.24,0
25.033,-1.14,-2.24,0
25.053,-1.01,-2.11,0
25.073,-1.01,-1.99,0
25.094,-0.89,-1.99,0
25.113,-0.77,-1.99,0
25.134,-0.77,-1.87,0
25.154,-0.65,-1.99,0
25.174,-0.77,-1.87,0
25.194,-0.65,-1.75,0
25.214,-0.53,-1.87,0
25.234,-0.53,-1.75,0
25.254,-0.4,-1.75,0
25.274,-1.87,-3.21,1
25.294,-3.95,-5.05,0
25.314,-5.54,-7.73,0
25.334,-7.61,-9.57,0
25.354,-9.45,-10.3,0
25.374,-10.3,-10.67,0
25.394,-10.54,-10.79,0
25.414,-10.79,-11.03,0
25.434,-11.03,-11.03,0
25.454,-11.16,-11.16,0
25.474,-11.16,-11.16,0
25.493,-11.28,-11.28,0
25.514,-11.28,-11.28,0
25.535,-11.28,-11.16,0
25.555,-11.28,-11.28,0
25.575,-11.28,-11.28,0
25.595,-11.28,-11.28,0
25.614,-11.4,-11.28,0
25.634,-11.28,-11.28,0
25.655,-11.28,-11.28,0
25.675,-11.28,-11.28,0
25.696,-11.4,-11.4,1
25.714,-11.4,-11.4,1
25.734,-11.4,-11.4,1
25.755,-11.4,-11.4,1
25.775,-11.4,-11.4,1
25.794,-11.52,-11.4,1
25.815,-11.4,-11.4,1
25.835,-11.4,-11.28,1
25.855,-10.91,-10.79,1
25.875,-10.3,-9.57,1
25.895,-9.32,-7.98,1
25.915,-7.49,-6.63,1
25.935,-5.9,-5.78,1
25.956,-4.92,-5.05,1
25.976,-4.19,-4.44,1
25.996,-3.82,-3.95,1
26.016,-3.21,-3.7,1
26.036,-2.97,-3.34,0
26.056,-2.48,-3.21,0
26.076,-2.36,-2.97,0
26.096,-1.87,-2.72,0
26.116,-1.63,-2.48,0
26.135,-1.5,-2.48,0
26.156,-1.14,-2.36,0
26.175,-1.26,-2.24,0
26.195,-1.14,-2.24,0
26.216,-1.14,-2.11,0
26.236,-0.89,-1.99,0
26.256,-0.89,-1.87,0
26.276,-0.89,-1.87,0
26.296,-0.65,-1.87,0
26.316,-0.89,-1.99,0
26.34,-0.65,-1.87,0
26.356,-0.77,-1.75,0
26.378,-0.65,-1.75,0
26.398,-0.65,-1.63,0
26.423,-0.4,-1.63,0
26.437,-0.28,-1.75,0
26.456,-1.5,-2.85,0
26.481,-3.58,-4.68,0
26.496,-5.17,-6.76,0
26.519,-7.25,-9.2,0
26.539,-9.32,-10.18,0
26.557,-10.3,-10.54,0
26.58,-10.54,-10.79,0
26.597,-10.91,-11.03,0
26.618,-10.91,-11.03,0
26.638,-11.16,-11.16,0
26.661,-11.16,-11.16,0
26.679,-11.4,-11.28,0
26.697,-11.28,-11.28,0
26.717,-11.28,-11.28,0
26.738,-11.28,-11.28,0
26.761,-11.28,-11.28,0
26.778,-11.28,-11.28,0
26.798,-11.4,-11.28,0
26.821,-11.4,-11.28,0
26.837,-11.4,-11.28,0
26.862,-11.4,-11.28,0
26.878,-11.4,-11.4,1
26.902,-11.4,-11.28,1
26.92,-11.4,-11.28,1
26.938,-11.4,-11.4,1
26.961,-11.52,-11.4,1
26.977,-11.4,-11.4,1
26.998,-11.4,-11.4,1
27.019,-11.4,-11.4,1
27.041,-11.03,-10.91,1
27.061,-10.42,-9.81,1
27.079,-9.57,-8.22,1
27.097,-7.73,-6.88,1
27.118,-6.15,-5.9,1
27.118,-5.17,-5.17,1
27.144,-4.31,-4.56,1
27.161,-3.82,-4.07,1
27.18,-3.21,-3.7,1
27.201,-2.97,-3.34,0
27.22,-2.48,-3.34,0
27.244,-2.24,-3.09,0
27.259,-1.99,-2.72,0
27.279,-1.63,-2.6,0
27.302,-1.5,-2.48,0
27.319,-1.14,-2.36,0
27.344,-1.26,-2.36,0
27.361,-1.14,-2.36,0
27.38,-1.14,-2.11,0
27.402,-1.01,-2.11,0
27.419,-0.77,-1.99,0
27.439,-0.89,-1.99,0
27.459,-0.77,-2.11,0
27.48,-0.89,-1.99,0
27.499,-0.77,-1.99,0
27.519,-0.77,-1.99,0
27.519,-0.77,-1.87,0
27.54,-0.53,-1.75,0
27.565,-0.65,-1.75,0
27.58,-0.53,-1.75,0
27.601,-1.38,-2.6,0
27.619,-3.46,-4.31,0
27.64,-5.17,-5.66,0
27.664,-6.88,-7.25,0
27.682,-9.08,-9.32,0
27.699,-10.18,-10.18,0
27.72,-10.54,-10.54,0
27.742,-10.91,-10.79,0
27.76,-10.91,-11.03,0
27.784,-11.16,-11.03,0
27.8,-11.16,-11.16,0
27.827,-11.28,-11.16,0
27.841,-11.28,-11.16,0
27.86,-11.28,-11.28,0
27.88,-11.28,-11.16,0
27.901,-11.28,-11.28,0
27.92,-11.4,-11.28,0
27.92,-11.4,-11.28,0
27.942,-11.4,-11.28,0
27.963,-11.4,-11.4,0
27.983,-11.4,-11.28,0
28.001,-11.4,-11.4,0
28.022,-11.4,-11.4,1
28.044,-11.52,-11.4,1
28.06,-11.4,-11.4,1
28.081,-11.4,-11.28,1
28.102,-11.52,-11.28,1
28.121,-11.4,-11.4,1
28.144,-11.4,-11.4,1
28.161,-11.16,-10.91,1
28.183,-10.54,-10.06,1
28.201,,,
28.221,-9.81,-8.47,1
28.246,-7.98,-6.88,1
28.263,-6.27,-5.9,1
28.282,-5.17,-5.05,1
28.304,-4.31,-4.44,1
28.322,-3.95,-4.07,1
28.347,-3.34,-3.7,0
28.362,-2.97,-3.46,0
28.384,-2.6,-3.21,0
28.402,-2.24,-2.85,0
28.425,-1.99,-2.72,0
28.442,-1.75,-2.6,0
28.463,,,
28.484,-1.5,-2.36,0
28.502,-1.14,-2.36,0
28.526,-1.26,-2.36,0
28.543,-1.26,-2.24,0
28.562,-1.01,-2.24,0
28.585,-1.14,-2.11,0
28.603,-0.89,-1.99,0
28.622,-0.89,-1.99,0
28.643,-0.77,-2.11,0
28.662,-0.89,-1.99,0
28.683,-0.77,-1.87,0
28.704,-0.77,-1.87,0
28.728,-0.77,-1.75,0
28.75,-0.65,-1.75,0
28.769,-0.65,-1.75,0
28.791,-0.53,-1.87,0
28.813,-1.01,-2.24,0
28.834,-3.09,-4.19,0
28.859,-4.92,-6.51,0
28.879,-6.51,-8.96,0
28.9,-8.71,-10.18,0
28.925,-10.06,-10.54,0
28.949,-10.42,-10.79,0
28.97,-10.79,-11.03,0
28.995,,,
28.995,,,
29.009,-10.91,-11.03,0
29.03,-11.16,-11.16,0
29.05,-11.16,-11.16,0
29.069,-11.28,-11.28,0
29.089,-11.28,-11.28,0
29.115,-11.28,-11.28,0
29.137,,,
29.158,-11.28,-11.28,0
29.178,-11.28,-11.28,0
29.198,-11.4,-11.28,0
29.217,-11.4,-11.28,0
29.238,-11.4,-11.4,0
29.262,-11.4,-11.28,0
29.284,-11.4,-11.28,0
29.306,,,
29.32,-11.28,-11.28,0
29.337,-11.4,-11.28,1
29.359,-11.28,-11.28,1
29.387,-11.4,-11.4,1
29.403,-11.4,-11.28,1
29.428,-11.52,-11.28,1
29.446,,,
29.458,-11.4,-11.4,1
29.478,-11.4,-11.4,1
29.499,-11.16,-11.03,1
29.52,-10.67,-10.06,1
29.546,-9.81,-8.35,1
29.567,-8.22,-6.76,1
29.592,-6.39,-5.78,1
29.612,-5.41,-5.05,1
29.63,-4.44,-4.44,1
29.651,-3.95,-4.19,1
29.677,-3.46,-3.7,0
29.695,,,
29.706,-3.09,-3.46,0
29.728,-2.6,-3.21,0
29.749,-2.11,-2.97,0
29.766,,,
29.786,-2.11,-2.72,0
29.806,-1.75,-2.6,0
29.83,-1.63,-2.48,0
29.846,-1.14,-2.48,0
29.871,-1.26,-2.48,0
29.888,-1.14,-2.24,0
29.906,-1.01,-2.11,0
29.927,-1.14,-2.11,0
29.948,-0.77,-1.99,0
29.958,,,
29.978,-0.77,-1.99,0
30.0,-0.77,-1.99,0
30.018,-0.77,-1.99,0
30.038,-0.77,-1.87,0
30.059,-0.65,-1.87,0
30.078,-0.77,-1.75,0
30.099,-0.53,-1.75,0
30.12,-0.53,-1.75,0
30.138,-0.4,-1.63,0
30.159,,,
30.178,-0.77,-2.11,0
30.199,-2.97,-3.95,0
30.22,-4.8,-6.15,0
30.241,-6.63,-8.71,0
30.259,-8.83,-9.93,0
30.279,-10.06,-10.42,0
30.298,-10.42,-10.79,0
30.32,-10.79,-10.91,0
30.342,-10.91,-11.03,0
30.359,,,
30.379,-11.16,-11.16,0
30.401,-11.16,-11.16,0
30.42,-11.28,-11.16,0
30.442,-11.28,-11.16,0
30.461,-11.28,-11.28,0
30.48,-11.28,-11.28,0
30.507,-11.4,-11.28,0
30.53,,,
30.541,-11.4,-11.28,0
30.559,-11.4,-11.28,0
30.58,-11.4,-11.28,0
30.603,-11.4,-11.28,0
30.628,-11.4,-11.28,0
30.652,-11.4,-11.28,0
30.677,-11.4,-11.4,0
30.696,,,
30.7,,,
30.721,-11.4,-11.4,1
30.745,-11.4,-11.28,1
30.759,-11.4,-11.28,1
30.772,-11.52,-11.4,1
30.795,-11.52,-11.4,1
30.818,-11.4,-11.28,1
30.836,,,
30.859,-11.16,-11.16,1
30.874,-10.67,-10.42,1
30.894,-9.93,-8.83,1
30.916,-8.71,-7.25,1
30.935,-6.63,-6.15,1
30.953,-5.41,-5.29,1
30.976,-4.56,-4.56,1
31.0,-3.95,-4.19,1
31.016,-3.58,-3.82,0
31.045,-2.97,-3.58,0
31.067,-2.72,-3.34,0
31.087,-2.11,-2.97,0
31.111,-2.11,-2.72,0
31.132,-1.99,-2.72,0
31.152,-1.63,-2.48,0
31.177,-1.26,-2.48,0
31.199,-1.14,-2.48,0
31.219,,,
31.239,-1.26,-2.24,0
31.265,-1.01,-2.24,0
31.277,-1.01,-2.11,0
31.3,-0.89,-1.87,0
31.325,-0.77,-1.99,0
31.339,-0.89,-2.11,0
31.357,-0.77,-1.99,0
31.378,-0.65,-1.99,0
31.397,-0.65,-1.87,0
31.42,-0.89,-1.75,0
31.438,-0.65,-1.75,0
31.46,-0.65,-1.87,0
31.482,,,
31.497,-0.53,-1.75,0
31.517,-0.53,-1.87,0
31.541,-2.48,-3.95,0
31.558,-4.56,-6.27,0
31.577,-6.02,-8.83,0
31.587,-8.35,-10.06,0
31.609,-9.93,-10.54,0
31.636,-10.42,-10.79,0
31.659,-10.79,-11.03,0
31.684,-10.91,-11.03,0
31.709,-11.03,-11.16,0
31.734,-11.16,-11.16,0
31.75,,,
31.75,,,
31.767,-11.28,-11.16,0
31.791,-11.28,-11.28,0
31.81,-11.28,-11.28,0
31.828,-11.28,-11.28,0
31.853,-11.4,-11.28,0
31.878,-11.4,-11.28,0
31.898,-11.4,-11.28,0
31.92,,,
31.927,-11.4,-11.28,0
31.952,-11.4,-11.28,0
31.971,-11.4,-11.28,0
31.995,-11.4,-11.28,0
32.02,-11.4,-11.28,0
32.045,-11.4,-11.28,1
32.061,,,
32.078,-11.4,-11.4,1
32.096,-11.4,-11.4,1
32.119,-11.4,-11.4,1
32.14,-11.4,-11.28,1
32.162,-11.4,-11.28,1
32.188,-11.28,-11.16,1
32.212,-10.79,-10.54,1
32.229,,,
32.235,,,
32.257,-10.06,-9.32,1
32.277,-8.96,-7.49,1
32.296,-6.88,-6.27,1
32.315,-5.54,-5.41,1
32.335,-4.68,-4.68,1
32.355,-4.07,-4.31,1
32.375,-3.7,-3.95,1
32.396,-3.09,-3.58,0
32.41,,,
32.431,-2.72,-3.34,0
32.451,-2.24,-3.09,0
32.471,-2.24,-2.85,0
32.491,-1.87,-2.6,0
32.511,-1.63,-2.6,0
32.531,-1.38,-2.36,0
32.551,-1.01,-2.48,0
32.571,-1.26,-2.36,0
32.591,-1.26,-2.11,0
32.611,-1.14,-2.11,0
32.631,-0.89,-1.99,0
32.652,-0.77,-1.99,0
32.672,,,
32.691,-0.89,-2.11,0
32.711,-0.65,-1.99,0
32.731,-0.89,-1.87,0
32.751,-0.53,-1.87,0
32.771,-0.77,-1.75,0
32.791,-0.77,-1.63,0
32.811,-0.53,-1.75,0
32.832,-0.4,-1.75,0
32.852,-0.4,-1.75,0
32.873,-2.48,-3.46,0
32.894,-4.44,-5.41,0
32.914,-6.15,-8.1,0
32.938,-8.47,-9.81,0
32.959,-9.81,-10.42,0
32.979,,,
32.992,-10.42,-10.67,0
33.011,-10.79,-10.91,0
33.032,-10.91,-11.03,0
33.054,-11.03,-11.03,0
33.077,-11.16,-11.16,0
33.102,-11.28,-11.16,0
33.127,-11.28,-11.28,0
33.147,,,
33.152,-11.28,-11.28,0
33.172,,,
33.191,-11.28,-11.28,0
33.212,-11.28,-11.28,0
33.232,-11.28,-11.28,0
33.252,-11.28,-11.28,0
33.272,-11.4,-11.28,0
33.294,-11.4,-11.28,0
33.315,,,
33.332,-11.4,-11.28,0
33.352,-11.28,-11.28,0
33.372,-11.4,-11.4,0
33.392,-11.4,-11.4,1
33.413,-11.4,-11.4,1
33.438,-11.4,-11.4,1
33.458,,,
33.472,-11.52,-11.4,1
33.494,-11.4,-11.4,1
33.512,-11.4,-11.4,1
33.532,-11.4,-11.28,1
33.557,-10.91,-10.67,1
33.581,-10.18,-9.45,1
33.601,,,
33.612,-9.2,-7.61,1
33.626,-7.25,-6.39,1
33.647,-5.66,-5.41,1
33.668,,,
33.687,-4.8,-4.8,1
33.707,-3.95,-4.31,1
33.727,-3.7,-3.95,1
33.747,-3.34,-3.58,0
33.767,-2.85,-3.34,0
33.787,-2.24,-2.97,0
33.807,-1.99,-2.72,0
33.827,-1.87,-2.6,0
33.847,-1.5,-2.48,0
33.867,,,
33.887,-1.26,-2.36,0
33.907,-1.01,-2.36,0
33.927,-1.14,-2.24,0
33.947,-1.14,-1.99,0
33.967,-0.89,-1.99,0
33.987,-0.77,-1.87,0
34.007,-0.4,-1.75,0
34.027,-0.65,-1.75,0
34.047,-0.4,-1.63,0
34.067,-0.53,-1.63,0
34.087,-0.4,-1.63,0
34.107,-0.28,-1.38,0
34.127,,,
34.147,-0.4,-1.38,0
34.167,-0.16,-1.5,0
34.187,-0.16,-1.38,0
34.207,0.21,-1.38,0
34.227,-1.38,-2.72,0
34.247,-3.46,-4.8,0
34.267,-5.17,-7.73,0
34.287,-7.49,-9.57,0
34.307,-9.32,-10.42,0
34.327,-10.18,-10.67,0
34.348,,,
34.367,-10.79,-10.91,0
34.387,-10.91,-11.16,0
34.407,-11.03,-11.16,0
34.427,-11.16,-11.28,0
34.446,-11.28,-11.28,0
34.47,-11.4,-11.28,0
34.491,,,
34.506,-11.4,-11.4,0
34.527,-11.4,-11.4,0
34.547,-11.4,-11.4,0
34.567,-11.52,-11.4,0
34.589,-11.52,-11.4,0
34.614,-11.52,-11.4,0
34.638,-11.52,-11.4,0
34.659,,,
34.667,-11.52,-11.4,0
34.687,-11.4,-11.4,0
34.708,-11.52,-11.4,0
34.733,-11.4,-11.52,1
34.757,-11.52,-11.4,1
34.781,-11.4,-11.4,1
34.802,,,
34.807,-11.52,-11.52,1
34.827,,,
34.847,-11.52,-11.52,1
34.852,-11.52,-11.4,1
34.876,-11.52,-11.4,1
34.9,-11.03,-10.91,1
34.925,-10.54,-9.93,1
34.945,,,
34.952,-9.57,-8.35,1
34.972,-7.73,-6.88,1
34.992,-6.02,-5.78,1
35.013,,,
35.032,-4.92,-5.05,1
35.053,-4.07,-4.44,1
35.073,-3.7,-3.95,1
35.093,-3.09,-3.58,0
35.112,-2.72,-3.34,0
35.132,-2.11,-2.97,0
35.153,-1.75,-2.72,0
35.172,-1.75,-2.48,0
35.193,-1.38,-2.24,0
35.212,-1.14,-2.24,0
35.232,-0.77,-2.11,0
35.252,-0.89,-1.99,0
35.273,,,
35.293,-0.89,-1.99,0
35.313,-0.77,-1.87,0
35.332,-0.53,-1.75,0
35.353,-0.28,-1.75,0
35.373,-0.53,-1.63,0
35.393,-0.28,-1.63,0
35.412,-0.4,-1.87,0
35.433,-0.28,-1.63,0
35.453,-0.16,-1.5,0
35.473,,,
35.493,-0.16,-1.5,0
35.513,-0.04,-1.5,0
35.533,0.09,-1.5,0
35.553,0.21,-1.5,0
35.572,-0.77,-2.48,0
35.593,-2.97,-4.07,0
35.613,-4.68,-5.54,0
35.633,-6.76,-7.86,0
35.653,-8.96,-9.69,0
35.673,-10.06,-10.42,0
35.693,-10.54,-10.79,0
35.715,-10.91,-10.91,0
35.74,-11.03,-11.03,0
35.76,,,
35.773,-11.28,-11.16,0
35.793,-11.28,-11.16,0
35.813,-11.4,-11.28,0
35.834,-11.4,-11.28,0
35.859,-11.4,-11.28,0
35.883,-11.4,-11.28,0
35.908,-11.52,-11.28,0
35.929,,,
35.934,-11.52,-11.4,0
35.953,-11.4,-11.4,0
35.977,-11.52,-11.4,0
36.001,-11.4,-11.4,0
36.026,-11.52,-11.4,0
36.052,-11.52,-11.4,0
36.072,,,
36.093,-11.52,-11.4,0
36.112,-11.52,-11.4,1
36.132,-11.52,-11.4,1
36.152,-11.52,-11.4,1
36.172,-11.52,-11.4,1
36.194,-11.52,-11.4,1
36.219,-11.52,-11.4,1
36.24,,,
36.253,-11.28,-11.03,1
36.272,-10.67,-10.06,1
36.292,-10.06,-8.22,1
36.312,-8.47,-6.63,1
36.334,-6.63,-5.66,1
36.354,,,
36.374,-5.41,-5.05,1
36.393,-4.31,-4.44,1
36.412,-3.95,-4.07,0
36.432,-3.46,-3.7,0
36.454,-2.72,-3.34,0
36.473,-2.36,-2.97,0
36.484,,,
36.51,-1.87,-2.72,0
36.526,-1.87,-2.48,0
36.545,-1.38,-2.48,0
36.564,-1.26,-2.48,0
36.584,-0.89,-2.24,0
36.604,-0.77,-2.11,0
36.628,-0.77,-1.99,0
36.645,-0.77,-1.87,0
36.664,-0.65,-1.87,0
36.686,-0.4,-1.87,0
36.707,-0.65,-1.75,0
36.724,-0.4,-1.87,0
36.746,,,
36.764,-0.4,-1.75,0
36.784,-0.4,-1.5,0
36.809,-0.04,-1.63,0
36.825,-0.28,-1.5,0
36.845,-0.16,-1.38,0
36.865,0.09,-1.5,0
36.885,0.21,-1.63,0
36.9,,,
36.925,-0.4,-1.99,0
36.943,-2.6,-3.95,0
36.963,-4.44,-6.27,0
36.98,-6.27,-8.83,0
37.002,-8.59,-10.06,0
37.021,-9.93,-10.54,0
37.04,-10.42,-10.79,0
37.061,-10.91,-11.03,0
37.085,-11.03,-11.16,0
37.103,,,
37.125,-11.16,-11.28,0
37.144,-11.28,-11.28,0
37.16,-11.4,-11.28,0
37.18,-11.4,-11.28,0
37.202,-11.4,-11.4,0
37.226,-11.4,-11.4,0
37.251,-11.4,-11.4,0
37.271,,,
37.281,-11.4,-11.28,0
37.301,-11.52,-11.4,0
37.319,-11.52,-11.4,0
37.344,-11.52,-11.4,0
37.37,-11.52,-11.4,0
37.395,-11.52,-11.4,0
37.413,,,
37.42,-11.52,-11.4,0
37.44,,,
37.461,-11.52,-11.4,1
37.48,-11.52,-11.52,1
37.503,-11.52,-11.52,1
37.52,-11.64,-11.52,1
37.542,-11.64,-11.52,1
37.561,-11.52,-11.52,1
37.584,,,
37.601,-11.4,-11.28,1
37.62,-10.91,-10.54,1
37.64,-10.3,-8.96,1
37.661,-8.83,-7.25,1
37.683,-6.88,-6.15,1
37.701,,,
37.724,-5.66,-5.29,1
37.725,-4.68,-4.68,1
37.746,-4.07,-4.19,0
37.766,,,
37.79,-3.46,-3.82,0
37.814,-2.97,-3.34,0
37.829,-2.6,-2.97,0
37.845,-1.99,-2.72,0
37.866,-1.99,-2.48,0
37.887,-1.5,-2.36,0
37.906,-1.26,-2.36,0
37.926,-1.01,-2.24,0
37.946,-0.89,-1.99,0
37.966,-0.89,-1.99,0
37.986,-0.77,-1.87,0
38.01,-0.89,-1.75,0
38.027,,,
38.046,-0.53,-1.87,0
38.069,-0.65,-1.87,0
38.087,-0.53,-1.75,0
38.107,-0.4,-1.75,0
38.125,-0.65,-1.63,0
