Time (s),Pressure 1 (kPa),Pressure 2 (kPa),Switch State
0.131,-7.49,-7.86,1
0.151,-7.61,-7.86,1
0.172,-7.61,-7.86,1
0.191,-7.61,-7.86,1
0.211,-7.61,-7.86,1
0.231,-7.49,-7.86,1
0.252,-7.61,-7.86,1
0.272,-7.61,-7.86,1
0.291,-7.49,-7.86,1
0.311,-7.49,-7.86,1
0.332,-7.49,-7.86,1
0.352,-7.61,-7.86,1
0.371,-7.49,-7.86,1
0.391,-7.61,-7.86,1
0.412,-7.61,-7.86,1
0.431,-7.61,-7.86,1
0.451,-7.49,-7.86,1
0.472,-7.61,-7.86,1
0.492,-7.61,-7.86,1
0.511,-7.49,-7.86,1
0.531,-7.49,-7.86,1
0.552,-7.49,-7.86,1
0.572,-7.61,-7.86,1
0.592,-7.49,-7.86,1
0.612,-7.49,-7.86,1
0.632,-7.49,-7.86,1
0.652,-7.49,-7.86,1
0.672,-7.61,-7.86,1
0.692,-7.49,-7.86,1
0.712,-7.49,-7.86,1
0.732,-7.61,-7.86,1
0.752,-7.49,-7.86,1
0.772,-7.49,-7.86,1
0.792,-7.61,-7.86,1
0.812,-7.49,-7.98,1
0.832,-7.49,-7.86,1
0.852,-7.49,-7.86,1
0.872,-7.49,-7.86,1
0.892,-7.49,-7.86,1
0.912,-7.49,-7.86,1
0.931,-7.49,-7.86,1
0.931,-7.49,-7.86,1
0.952,-7.49,-7.86,1
0.972,-7.49,-7.86,1
0.992,-7.49,-7.86,1
1.012,-7.61,-7.86,1
1.032,-7.61,-7.98,1
1.052,-7.61,-7.98,1
1.072,-7.61,-7.86,1
1.092,-7.61,-7.86,1
1.112,-7.61,-7.86,1
1.132,-7.49,-7.86,1
1.152,-7.61,-7.86,1
1.172,-7.61,-7.86,1
1.192,-7.61,-7.86,1
1.212,-7.49,-7.86,1
1.232,-7.49,-7.86,1
1.252,-7.49,-7.86,1
1.272,-7.49,-7.86,1
1.292,-7.49,-7.86,1
1.313,-7.61,-7.86,1
1.332,-7.61,-7.86,1
1.353,-7.61,-7.86,1
1.373,-7.49,-7.86,1
1.393,-7.61,-7.86,1
1.413,-7.61,-7.86,1
1.433,-7.61,-7.86,1
1.452,-7.61,-7.86,1
1.473,-7.49,-7.86,1
1.492,-7.49,-7.86,1
1.512,-7.49,-7.86,1
1.533,-7.61,-7.86,1
1.553,-7.61,-7.86,1
1.573,-7.49,-7.86,1
1.593,-7.49,-7.86,1
1.613,-7.61,-7.86,1
1.632,-7.61,-7.86,1
1.652,-7.49,-7.86,1
1.672,-7.61,-7.86,1
1.693,-7.61,-7.86,1
1.712,-7.49,-7.86,1
1.733,-7.61,-7.86,1
1.753,-7.61,-7.86,1
1.773,-7.49,-7.86,1
1.793,-7.61,-7.86,1
1.814,-7.61,-7.86,1
1.833,-7.49,-7.86,1
1.853,-7.61,-7.86,1
1.873,-7.49,-7.86,1
1.894,-7.49,-7.86,1
1.913,-7.61,-7.86,1
1.934,-7.49,-7.86,1
1.953,-7.49,-7.86,1
1.973,-7.61,-7.86,1
1.994,-7.49,-7.86,1
2.014,-7.49,-7.86,1
2.034,-7.61,-7.86,1
2.054,-7.49,-7.86,1
2.073,-7.61,-7.86,1
2.094,-7.61,-7.86,1
2.113,-7.61,-7.86,1
2.133,-7.49,-7.86,1
2.133,-7.49,-7.86,1
2.155,-7.49,-7.86,1
2.173,-7.61,-7.86,1
2.193,-7.61,-7.86,1
2.214,-7.49,-7.86,1
2.233,-7.61,-7.86,1
2.254,-7.61,-7.86,1
2.274,-7.61,-7.86,1
2.294,-7.61,-7.86,1
2.314,-7.49,-7.86,1
2.334,-7.61,-7.86,1
2.354,-7.49,-7.86,1
2.374,-7.61,-7.86,1
2.394,-7.49,-7.86,1
2.414,-7.61,-7.86,1
2.434,-7.61,-7.86,1
2.454,-7.61,-7.86,1
2.474,-7.61,-7.86,1
2.493,-7.49,-7.86,1
2.514,-7.61,-7.86,1
2.534,-7.49,-7.86,1
2.534,-7.61,-7.86,1
2.555,-7.49,-7.86,1
2.574,-7.61,-7.86,1
2.594,-7.61,-7.86,1
2.615,-7.49,-7.98,1
2.634,-7.61,-7.86,1
2.654,-7.61,-7.86,1
2.675,-7.61,-7.86,1
2.694,-7.61,-7.86,1
2.715,-7.49,-7.86,1
2.735,-7.61,-7.86,1
2.754,-7.61,-7.86,1
2.775,-7.61,-7.86,1
2.795,-7.49,-7.86,1
2.814,-7.49,-7.86,1
2.835,-7.61,-7.86,1
2.855,-7.49,-7.86,1
2.874,-7.49,-7.86,1
2.894,-7.49,-7.86,1
2.914,-7.49,-7.86,1
2.934,-7.49,-7.86,1
2.954,-7.49,-7.86,1
2.974,-7.61,-7.86,1
2.994,-7.49,-7.86,1
3.014,-7.61,-7.86,1
3.034,-7.49,-7.86,1
3.054,-7.49,-7.86,1
3.074,-7.49,-7.86,1
3.094,-7.49,-7.86,1
3.115,-7.61,-7.86,1
3.134,-7.61,-7.86,1
3.154,-7.61,-7.86,1
3.175,-7.61,-7.86,1
3.194,-7.61,-7.86,1
3.215,-7.61,-7.86,1
3.234,-7.49,-7.86,1
3.255,-7.49,-7.86,1
3.274,-7.49,-7.86,1
3.294,-7.61,-7.86,1
3.315,-7.49,-7.86,1
3.334,-7.49,-7.86,1
3.355,-7.61,-7.86,1
3.375,-7.49,-7.86,1
3.395,-7.49,-7.86,1
3.415,-7.49,-7.86,1
3.434,-7.49,-7.86,1
3.454,-7.49,-7.86,1
3.475,-7.49,-7.86,1
3.495,-7.49,-7.86,1
3.515,-7.49,-7.86,1
3.535,-7.49,-7.86,1
3.554,-7.49,-7.86,1
3.574,-7.49,-7.86,1
3.595,-7.49,-7.86,1
3.614,-7.49,-7.86,1
3.635,-7.61,-7.86,1
3.655,-7.49,-7.98,1
3.675,-7.49,-7.86,1
3.694,-7.61,-7.86,1
3.714,-7.49,-7.86,1
3.736,-7.49,-8.22,1
3.736,-7.61,-8.59,1
3.756,-7.49,-8.83,1
3.777,-7.61,-8.96,1
3.797,-7.49,-8.83,1
3.817,-7.49,-8.59,1
3.837,-7.49,-8.35,1
3.857,-7.61,-8.22,1
3.877,-7.61,-8.1,1
3.897,-7.61,-8.1,1
3.917,-7.49,-7.98,1
3.936,-7.61,-7.98,1
3.956,-7.49,-7.98,1
3.976,-7.61,-7.98,1
3.997,-7.49,-7.98,1
4.016,-7.49,-7.98,1
4.036,-7.49,-7.98,1
4.057,-7.61,-7.86,1
4.077,-7.61,-7.98,1
4.097,-7.49,-7.98,1
4.116,-7.49,-7.86,1
4.136,-7.49,-7.86,1
4.156,-7.61,-7.86,1
4.177,-7.61,-7.86,1
4.197,-7.61,-7.86,1
4.217,-7.61,-7.86,1
4.237,-7.61,-7.98,1
4.257,-7.49,-7.86,1
4.277,-7.61,-7.86,1
4.297,-7.61,-7.86,1
4.317,-7.61,-7.86,1
4.337,-7.61,-7.86,1
4.356,-7.49,-7.86,1
4.377,-7.49,-7.86,1
4.397,-7.61,-7.86,1
4.417,-7.61,-7.86,1
4.437,-7.49,-7.86,1
4.457,-7.49,-7.86,1
4.476,-7.49,-7.86,1
4.497,-7.61,-7.98,1
4.517,-7.61,-7.86,1
4.537,-7.61,-7.98,1
4.537,-7.61,-7.86,1
4.558,-7.49,-7.86,1
4.578,-7.49,-7.86,1
4.598,-7.61,-7.98,1
4.618,-7.61,-7.98,1
4.638,-7.25,-7.86,1
4.658,-6.51,-7.49,1
4.678,-5.9,-6.88,1
4.698,-5.41,-6.51,1
4.718,-5.17,-6.27,1
4.738,-4.92,-6.02,1
4.758,-4.92,-5.78,1
4.777,-4.68,-5.54,1
4.797,-4.44,-5.41,1
4.818,-4.31,-5.29,1
4.838,-4.31,-5.17,1
4.858,-4.31,-5.17,1
4.878,-4.19,-5.05,1
4.898,-4.19,-5.05,1
4.917,-4.31,-4.92,1
4.938,-4.19,-4.92,1
4.958,-3.95,-4.92,0
4.978,-3.95,-4.92,0
4.998,-3.82,-4.92,0
5.018,-3.95,-4.92,0
5.039,-3.82,-4.8,0
5.059,-3.95,-4.8,0
5.079,-4.07,-4.8,0
5.098,-3.95,-4.68,0
5.119,-3.82,-4.68,0
5.138,-3.82,-4.68,0
5.158,-3.82,-4.68,0
5.178,-3.82,-4.68,0
5.199,-3.82,-4.68,0
5.218,-3.95,-4.68,0
5.238,-3.95,-4.68,0
5.258,-3.95,-4.68,0
5.278,-3.82,-4.68,0
5.299,-3.7,-4.68,0
5.318,-3.82,-4.68,0
5.338,-3.7,-4.56,0
5.338,-3.82,-4.56,0
5.359,-3.82,-4.56,0
5.379,-3.82,-4.56,0
5.399,-3.82,-4.68,0
5.418,-3.82,-4.56,0
5.439,-3.82,-4.68,0
5.459,-3.95,-4.68,0
5.479,-3.82,-4.68,0
5.499,-3.82,-4.68,0
5.519,-3.82,-4.68,0
5.539,-3.82,-4.56,0
5.56,-3.7,-4.56,0
5.579,-3.7,-4.56,0
5.599,-3.7,-4.56,0
5.619,-3.7,-4.44,0
5.639,-3.7,-4.56,0
5.659,-3.7,-4.56,0
5.679,-3.7,-4.56,0
5.699,-4.68,-5.41,0
5.719,-5.78,-6.39,0
5.739,-6.39,-7.0,0
5.739,-6.88,-8.22,0
5.76,-7.37,-9.08,0
5.78,-8.35,-9.45,0
5.799,-9.08,-9.57,0
5.819,-9.45,-9.69,0
5.839,-9.57,-9.81,0
5.859,-9.69,-9.81,0
5.879,-9.81,-9.93,0
5.899,-9.93,-9.93,0
5.919,-10.06,-9.93,0
5.939,-10.06,-10.06,0
5.959,-10.06,-9.93,0
5.98,-10.18,-10.06,0
6.0,-10.06,-10.06,0
6.019,-10.06,-10.06,0
6.039,-10.06,-10.06,0
6.06,-10.18,-10.06,0
6.079,-10.18,-10.06,0
6.099,-10.18,-10.18,0
6.119,-10.18,-10.18,0
6.139,-10.18,-10.18,0
6.139,-10.18,-10.06,0
6.16,-10.18,-10.06,0
6.18,-10.18,-10.18,0
6.2,-10.18,-10.18,0
6.22,-10.18,-10.18,0
6.24,-10.18,-10.18,0
6.26,-10.18,-10.18,0
6.28,-10.18,-10.18,0
6.3,-10.18,-10.18,0
6.319,-10.18,-10.18,0
6.34,-10.3,-10.18,0
6.36,-10.18,-10.18,0
6.38,-10.3,-10.18,0
6.4,-10.18,-10.18,1
6.42,-10.18,-10.18,1
6.44,-10.18,-10.18,1
6.46,-10.18,-10.18,1
6.48,-10.18,-10.3,1
6.5,-10.3,-10.3,1
6.52,-10.18,-10.18,1
6.54,-10.3,-10.18,1
6.561,-10.3,-10.18,1
6.581,-10.3,-10.18,1
6.601,-10.18,-10.3,1
6.621,-10.3,-10.3,1
6.641,-10.3,-10.18,1
6.661,-10.3,-10.18,1
6.681,-9.93,-9.93,1
6.7,-9.32,-9.32,1
6.72,-8.71,-8.59,1
6.741,-8.35,-7.61,1
6.76,-7.73,-7.12,1
6.78,-7.0,-6.63,1
6.801,-6.39,-6.27,1
6.821,-5.9,-6.15,1
6.841,-5.54,-5.9,1
6.861,-5.05,-5.66,1
6.881,-4.8,-5.54,1
6.901,-4.8,-5.41,1
6.92,-4.68,-5.29,1
6.941,-4.68,-5.29,1
6.941,-4.56,-5.17,1
6.961,-4.56,-5.17,1
6.981,-4.44,-5.17,1
7.002,-4.19,-5.17,0
7.021,-4.07,-5.17,0
7.041,-4.19,-5.05,0
7.061,-4.07,-5.05,0
7.086,-4.07,-4.92,0
7.101,-4.19,-4.92,0
7.121,-4.07,-4.92,0
7.141,-4.07,-4.92,0
7.161,-3.95,-4.8,0
7.182,-3.95,-4.8,0
7.201,-3.95,-4.8,0
7.221,-3.95,-4.8,0
7.242,-3.95,-4.8,0
7.261,-3.95,-4.92,0
7.281,-3.95,-4.8,0
7.301,-4.07,-4.92,0
7.322,-3.82,-4.8,0
7.342,-3.82,-4.8,0
7.342,-3.82,-4.8,0
7.362,-3.82,-4.68,0
7.383,-3.95,-4.8,0
7.403,-3.95,-4.68,0
7.423,-4.07,-4.68,0
7.443,-3.95,-4.8,0
7.463,-3.95,-4.8,0
7.482,-3.95,-4.8,0
7.503,-3.95,-4.8,0
7.523,-3.95,-4.8,0
7.543,-3.95,-4.68,0
7.563,-3.82,-4.68,0
7.583,-3.82,-4.68,0
7.603,-3.82,-4.68,0
7.622,-3.82,-4.56,0
7.643,-3.7,-4.56,0
7.663,-3.7,-4.56,0
7.683,-3.82,-4.56,0
7.702,-3.82,-4.56,0
7.723,-3.95,-4.8,0
7.742,-5.05,-5.78,0
7.763,-6.02,-6.63,0
7.783,-6.76,-7.49,0
7.803,-7.0,-8.59,0
7.823,-7.73,-9.2,0
7.843,-8.71,-9.45,0
7.863,-9.32,-9.69,0
7.883,-9.45,-9.81,0
7.902,-9.57,-9.93,0
7.923,-9.69,-9.93,0
7.943,-9.93,-9.93,0
7.963,-10.06,-10.06,0
7.983,-10.06,-10.06,0
8.003,-10.06,-10.06,0
8.023,-10.06,-10.06,0
8.043,-10.06,-10.18,0
8.063,-10.06,-10.18,0
8.082,-10.06,-10.18,0
8.103,-10.18,-10.18,0
8.122,-10.18,-10.18,0
8.143,-10.18,-10.18,0
8.163,-10.18,-10.18,0
8.183,-10.18,-10.18,0
8.203,-10.18,-10.18,0
8.224,-10.18,-10.18,0
8.244,-10.18,-10.18,0
8.263,-10.3,-10.18,0
8.283,-10.3,-10.3,0
8.303,-10.3,-10.3,0
8.323,-10.18,-10.18,0
8.343,-10.18,-10.18,0
8.363,-10.18,-10.18,0
8.383,-10.18,-10.18,0
8.403,-10.3,-10.18,0
8.423,-10.3,-10.18,0
8.443,-10.3,-10.3,0
8.464,-10.3,-10.18,0
8.483,-10.3,-10.3,1
8.503,-10.18,-10.3,1
8.523,-10.18,-10.3,1
8.544,-10.3,-10.18,1
8.544,-10.3,-10.3,1
8.564,-10.3,-10.3,1
8.584,-10.3,-10.18,1
8.604,-10.3,-10.3,1
8.624,-10.3,-10.3,1
8.644,-10.18,-10.3,1
8.665,-10.3,-10.3,1
8.684,-10.3,-10.3,1
8.705,-10.3,-10.3,1
8.724,-10.18,-10.18,1
8.744,-9.57,-9.69,1
8.764,-9.08,-8.96,1
8.784,-8.59,-8.1,1
8.804,-8.1,-7.37,1
8.824,-7.25,-6.88,1
8.845,-6.63,-6.51,1
8.864,-6.27,-6.27,1
8.884,-5.78,-5.9,1
8.905,-5.17,-5.66,1
8.925,-4.92,-5.66,1
8.944,-4.8,-5.41,1
8.944,-4.68,-5.29,1
8.965,-4.56,-5.17,1
8.985,-4.56,-5.17,1
9.004,-4.68,-5.05,1
9.024,-4.56,-5.05,1
9.044,-4.19,-5.05,0
9.064,-4.07,-5.05,0
9.084,-3.95,-5.05,0
9.104,-4.07,-4.92,0
9.124,-4.07,-4.92,0
9.145,-4.07,-4.8,0
9.164,-4.19,-4.8,0
9.184,-4.19,-4.8,0
9.205,-3.95,-4.8,0
9.225,-3.95,-4.68,0
9.245,-3.95,-4.68,0
9.265,-3.95,-4.8,0
9.285,-4.07,-4.8,0
9.305,-4.07,-4.8,0
9.324,-4.19,-4.8,0
9.344,-4.19,-4.8,0
9.344,-3.95,-4.68,0
9.365,-3.82,-4.68,0
9.385,-3.82,-4.68,0
9.405,-3.82,-4.68,0
9.425,-3.95,-4.68,0
9.445,-3.95,-4.68,0
9.464,-4.19,-4.68,0
9.485,-4.07,-4.68,0
9.505,-3.95,-4.68,0
9.525,-3.82,-4.68,0
9.545,-3.82,-4.8,0
9.564,-3.82,-4.8,0
9.585,-3.95,-4.8,0
9.605,-3.82,-4.68,0
9.625,-3.82,-4.68,0
9.645,-3.95,-4.68,0
9.665,-3.7,-4.68,0
9.685,-3.58,-4.56,0
9.705,-3.58,-4.56,0
9.725,-3.7,-4.68,0
9.745,-3.82,-4.68,0
9.745,-4.07,-5.17,0
9.766,-5.41,-6.15,0
9.786,-6.27,-7.0,0
9.806,-6.76,-8.1,0
9.826,-7.25,-8.96,0
9.846,-8.22,-9.45,0
9.866,-9.08,-9.69,0
9.886,-9.45,-9.81,0
9.905,-9.45,-9.81,0
9.925,-9.57,-9.93,0
9.945,-9.81,-9.93,0
9.965,-10.06,-10.06,0
9.985,-10.06,-10.06,0
10.005,-10.06,-10.06,0
10.025,-10.06,-10.06,0
10.045,-10.18,-10.06,0
10.066,-10.06,-10.18,0
10.086,-10.18,-10.18,0
10.106,-10.3,-10.18,0
10.126,-10.3,-10.18,0
10.145,-10.3,-10.18,0
10.145,-10.18,-10.18,0
10.166,-10.18,-10.18,0
10.186,-10.18,-10.18,0
10.206,-10.18,-10.18,0
10.226,-10.3,-10.18,0
10.246,-10.3,-10.18,0
10.266,-10.18,-10.18,0
10.286,-10.18,-10.3,0
10.306,-10.18,-10.18,0
10.326,-10.18,-10.18,0
10.345,-10.18,-10.18,0
10.365,-10.3,-10.3,0
10.386,-10.3,-10.18,0
10.406,-10.3,-10.3,0
10.426,-10.3,-10.18,0
10.445,-10.3,-10.3,1
10.466,-10.18,-10.3,1
10.486,-10.18,-10.3,1
10.506,-10.18,-10.3,1
10.525,-10.3,-10.18,1
10.546,-10.3,-10.3,1
10.546,-10.3,-10.3,1
10.567,-10.3,-10.3,1
10.586,-10.18,-10.3,1
10.606,-10.3,-10.3,1
10.627,-10.3,-10.3,1
10.646,-10.3,-10.3,1
10.666,-10.42,-10.3,1
10.686,-9.93,-9.93,1
10.706,-9.32,-9.32,1
10.735,-8.71,-8.47,1
10.747,-8.35,-7.49,1
10.766,-7.61,-7.0,1
10.787,-6.88,-6.63,1
10.807,-6.27,-6.27,1
10.826,-5.78,-6.02,1
10.847,-5.17,-5.78,1
10.866,-4.92,-5.54,1
10.886,-4.8,-5.54,1
10.906,-4.68,-5.29,1
10.926,-4.68,-5.29,1
10.947,-4.68,-5.17,1
10.947,-4.68,-5.05,1
10.967,-4.44,-5.05,1
10.987,-4.19,-5.05,0
11.008,-4.07,-5.05,0
11.027,-4.07,-5.05,0
11.047,-4.07,-4.92,0
11.068,-4.07,-4.92,0
11.087,-4.31,-4.92,0
11.108,-4.19,-4.92,0
11.127,-3.95,-4.8,0
11.147,-3.95,-4.8,0
11.167,-3.95,-4.8,0
11.187,-3.95,-4.8,0
11.208,-3.95,-4.8,0
11.236,-4.07,-4.92,0
11.247,-4.19,-4.8,0
11.267,-4.19,-4.8,0
11.287,-3.82,-4.8,0
11.307,-3.82,-4.8,0
11.328,-3.82,-4.8,0
11.347,-3.82,-4.68,0
11.368,-3.82,-4.68,0
11.387,-3.95,-4.68,0
11.407,-4.07,-4.68,0
11.427,-3.95,-4.68,0
11.447,-3.82,-4.68,0
11.467,-3.82,-4.8,0
11.487,-3.82,-4.8,0
11.507,-3.82,-4.8,0
11.527,-3.82,-4.68,0
11.547,-3.82,-4.68,0
11.567,-3.82,-4.56,0
11.587,-3.82,-4.56,0
11.607,-3.58,-4.56,0
11.627,-3.7,-4.56,0
11.647,-3.7,-4.56,0
11.668,-3.7,-4.68,0
11.687,-3.82,-4.68,0
11.707,-4.68,-5.54,0
11.727,-5.78,-6.51,0
11.748,-6.63,-7.25,0
11.768,-7.0,-8.47,0
11.788,-7.61,-9.2,0
11.809,-8.59,-9.57,0
11.828,-9.2,-9.69,0
11.848,-9.45,-9.81,0
11.868,-9.69,-9.93,0
11.888,-9.81,-10.06,0
11.908,-9.93,-10.06,0
11.928,-9.93,-10.06,0
11.948,-10.06,-10.06,0
11.969,-10.18,-10.06,0
11.988,-10.18,-10.06,0
12.009,-10.06,-10.18,0
12.028,-10.06,-10.18,0
12.048,-10.18,-10.18,0
12.068,-10.18,-10.18,0
12.088,-10.3,-10.18,0
12.108,-10.3,-10.18,0
12.128,-10.18,-10.18,0
12.148,-10.18,-10.18,0
12.168,-10.18,-10.18,0
12.188,-10.3,-10.18,0
12.209,-10.3,-10.18,0
12.228,-10.18,-10.18,0
12.248,-10.18,-10.18,0
12.269,-10.18,-10.18,0
12.288,-10.18,-10.18,0
12.308,-10.18,-10.18,0
12.328,-10.18,-10.18,0
12.349,-10.3,-10.3,0
12.368,-10.3,-10.3,0
12.388,-10.18,-10.18,0
12.409,-10.3,-10.18,1
12.429,-10.18,-10.3,1
12.449,-10.18,-10.3,1
12.469,-10.18,-10.3,1
12.489,-10.3,-10.3,1
12.509,-10.3,-10.3,1
12.529,-10.3,-10.3,1
12.548,-10.18,-10.18,1
12.569,-10.3,-10.18,1
12.589,-10.3,-10.3,1
12.609,-10.3,-10.3,1
12.628,-10.3,-10.3,1
12.65,-10.3,-10.3,1
12.669,-10.3,-10.3,1
12.689,-9.69,-9.57,1
12.709,-9.08,-8.96,1
12.729,-8.59,-8.1,1
12.749,-8.1,-7.25,1
12.769,-7.25,-6.76,1
12.789,-6.51,-6.39,1
12.809,-6.15,-6.15,1
12.829,-5.54,-5.9,1
12.849,-5.05,-5.78,1
12.869,-4.92,-5.54,1
12.889,-4.8,-5.41,1
12.909,-4.68,-5.29,1
12.929,-4.56,-5.17,1
12.948,-4.68,-5.17,1
12.969,-4.68,-5.05,1
12.99,-4.31,-5.05,0
13.009,-4.07,-5.05,0
13.03,-4.07,-5.05,0
13.049,-3.95,-5.05,0
13.069,-4.07,-5.05,0
13.089,-4.19,-4.92,0
13.109,-4.19,-4.92,0
13.129,-4.19,-4.8,0
13.149,-3.95,-4.8,0
13.169,-3.95,-4.8,0
13.189,-3.95,-4.8,0
13.209,-3.95,-4.8,0
13.229,-3.95,-4.8,0
13.249,-4.07,-4.92,0
13.269,-4.19,-4.92,0
13.289,-4.07,-4.8,0
13.309,-3.82,-4.8,0
13.329,-3.82,-4.8,0
13.349,-3.82,-4.8,0
13.37,-3.82,-4.68,0
13.39,-3.95,-4.68,0
13.41,-4.07,-4.68,0
13.437,-4.19,-4.68,0
13.449,-4.07,-4.68,0
13.469,-3.95,-4.68,0
13.491,-3.95,-4.8,0
13.51,-3.82,-4.8,0
13.529,-3.95,-4.8,0
13.55,-3.95,-4.68,0
13.57,-3.95,-4.68,0
13.59,-3.95,-4.68,0
13.609,-3.82,-4.56,0
13.63,-3.7,-4.56,0
13.649,-3.7,-4.56,0
13.669,-3.7,-4.56,0
13.69,-3.82,-4.68,0
13.71,-4.07,-4.8,0
13.73,-5.17,-5.9,0
13.749,-6.27,-6.63,0
13.749,-6.76,-7.73,0
13.769,-7.12,-8.83,0
13.789,-7.98,-9.32,0
13.81,-8.83,-9.57,0
13.83,-9.32,-9.69,0
13.85,-9.57,-9.81,0
13.87,-9.69,-9.93,0
13.89,-9.81,-9.93,0
13.909,-9.93,-10.06,0
13.93,-10.06,-10.06,0
13.95,-10.06,-10.06,0
13.969,-10.06,-10.06,0
13.989,-10.06,-10.18,0
14.01,-10.06,-10.18,0
14.03,-10.06,-10.18,0
14.05,-10.3,-10.18,0
14.069,-10.18,-10.18,0
14.089,-10.18,-10.18,0
14.109,-10.18,-10.18,0
14.13,-10.18,-10.18,0
14.15,-10.18,-10.18,0
14.15,-10.18,-10.18,0
14.171,-10.18,-10.18,0
14.191,-10.18,-10.18,0
14.211,-10.18,-10.18,0
14.236,-10.18,-10.3,0
14.251,-10.18,-10.3,0
14.271,-10.18,-10.18,0
14.291,-10.18,-10.18,0
14.311,-10.3,-10.18,0
14.331,-10.3,-10.18,0
14.351,-10.3,-10.18,0
14.371,-10.3,-10.18,0
14.391,-10.3,-10.18,1
14.411,-10.18,-10.18,1
14.431,-10.18,-10.3,1
14.45,-10.18,-10.18,1
14.47,-10.3,-10.3,1
14.492,-10.3,-10.3,1
14.511,-10.3,-10.3,1
14.53,-10.3,-10.3,1
14.551,-10.3,-10.3,1
14.551,-10.18,-10.3,1
14.571,-10.3,-10.3,1
14.591,-10.3,-10.3,1
14.612,-10.3,-10.3,1
14.631,-10.06,-10.06,1
14.651,-9.32,-9.45,1
14.671,-8.83,-8.71,1
14.692,-8.35,-7.73,1
14.711,-7.73,-7.0,1
14.732,-6.88,-6.63,1
14.751,-6.39,-6.27,1
14.771,-5.9,-6.02,1
14.791,-5.29,-5.78,1
14.811,-4.92,-5.66,1
14.831,-4.8,-5.54,1
14.851,-4.68,-5.29,1
14.871,-4.56,-5.29,1
14.891,-4.68,-5.17,1
14.911,-4.68,-5.17,1
14.931,-4.56,-5.05,1
14.951,-4.19,-5.05,0
14.951,-4.07,-5.05,0
14.971,-4.07,-5.05,0
14.992,-4.07,-5.05,0
15.012,-4.07,-4.92,0
15.032,-4.19,-4.92,0
15.051,-4.31,-4.92,0
15.071,-4.07,-4.8,0
15.091,-3.95,-4.8,0
15.112,-3.95,-4.8,0
15.132,-3.95,-4.8,0
15.151,-4.07,-4.8,0
15.172,-4.07,-4.8,0
15.191,-4.19,-4.8,0
15.211,-4.19,-4.8,0
15.232,-4.07,-4.8,0
15.252,-3.82,-4.68,0
15.272,-3.82,-4.68,0
15.291,-3.82,-4.68,0
15.311,-3.95,-4.68,0
15.332,-4.07,-4.68,0
15.352,-4.07,-4.68,0
15.372,-4.19,-4.68,0
15.392,-4.07,-4.68,0
15.413,-3.95,-4.8,0
15.432,-3.95,-4.8,0
15.452,-3.95,-4.8,0
15.472,-3.95,-4.8,0
15.492,-3.95,-4.68,0
15.512,-3.95,-4.68,0
15.532,-3.95,-4.68,0
15.552,-3.82,-4.56,0
15.573,-3.7,-4.68,0
15.593,-3.7,-4.56,0
15.612,-3.7,-4.68,0
15.633,-3.82,-4.68,0
15.653,-4.44,-5.29,0
15.673,-5.66,-6.39,0
15.692,-6.39,-7.0,0
15.712,-6.88,-8.22,0
15.732,-7.37,-9.08,0
15.752,-8.35,-9.45,0
15.773,-9.08,-9.69,0
15.793,-9.45,-9.81,0
15.813,-9.57,-9.93,0
15.833,-9.69,-9.93,0
15.854,-9.93,-10.06,0
15.873,-10.06,-10.06,0
15.892,-10.06,-10.06,0
15.913,-10.06,-10.06,0
15.933,-10.06,-10.06,0
15.953,-10.06,-10.18,0
15.973,-10.06,-10.18,0
15.993,-10.18,-10.18,0
16.013,-10.3,-10.18,0
16.033,-10.3,-10.18,0
16.052,-10.3,-10.18,0
16.072,-10.18,-10.18,0
16.093,-10.18,-10.18,0
16.113,-10.18,-10.18,0
16.133,-10.18,-10.18,0
16.153,-10.18,-10.18,0
16.174,-10.3,-10.18,0
16.194,-10.3,-10.18,0
16.213,-10.18,-10.18,0
16.233,-10.18,-10.18,0
16.253,-10.18,-10.3,0
16.273,-10.18,-10.3,0
16.294,-10.3,-10.3,0
16.313,-10.3,-10.18,0
16.333,-10.3,-10.18,0
16.353,-10.3,-10.18,0
16.373,-10.3,-10.3,1
16.393,-10.18,-10.3,1
16.414,-10.18,-10.3,1
16.434,-10.18,-10.3,1
16.453,-10.3,-10.3,1
16.473,-10.3,-10.3,1
16.493,-10.3,-10.3,1
16.514,-10.3,-10.3,1
16.533,-10.18,-10.3,1
16.553,-10.3,-10.3,1
16.554,-10.3,-10.3,1
16.574,-10.3,-10.3,1
16.594,-10.3,-10.3,1
16.614,-9.81,-9.69,1
16.634,-9.2,-9.2,1
16.654,-8.71,-8.22,1
16.675,-8.22,-7.37,1
16.694,-7.49,-6.88,1
16.715,-6.76,-6.51,1
16.734,-6.15,-6.15,1
16.755,-5.66,-5.9,1
16.775,-5.17,-5.78,1
16.795,-4.92,-5.54,1
16.815,-4.8,-5.41,1
16.835,-4.68,-5.29,1
16.855,-4.68,-5.17,1
16.874,-4.68,-5.17,1
16.894,-4.68,-5.17,1
16.914,-4.44,-5.05,1
16.934,-4.19,-5.17,0
16.954,-4.07,-5.17,0
16.954,-4.07,-5.05,0
16.974,-4.07,-5.05,0
16.994,-4.19,-4.92,0
17.015,-4.19,-4.92,0
17.035,-4.19,-4.92,0
17.055,-4.07,-4.92,0
17.075,-3.95,-4.92,0
17.095,-4.07,-4.8,0
17.115,-3.95,-4.92,0
17.135,-4.07,-4.8,0
17.155,-4.19,-4.92,0
17.174,-4.19,-4.92,0
17.195,-4.19,-4.8,0
17.215,-3.95,-4.92,0
17.236,-3.95,-4.8,0
17.255,-3.82,-4.8,0
17.275,-3.95,-4.8,0
17.296,-3.95,-4.68,0
17.315,-4.07,-4.8,0
17.335,-4.19,-4.68,0
17.355,-4.07,-4.8,0
17.376,-3.95,-4.68,0
17.396,-3.82,-4.8,0
17.416,-3.95,-4.8,0
17.435,-3.95,-4.8,0
17.455,-3.95,-4.68,0
17.476,-3.95,-4.68,0
17.496,-3.82,-4.68,0
17.516,-3.82,-4.56,0
17.535,-3.7,-4.56,0
17.555,-3.7,-4.56,0
17.575,-3.7,-4.68,0
17.596,-3.82,-4.68,0
17.616,-3.82,-4.68,0
17.636,-4.92,-5.78,0
17.656,-6.02,-6.63,0
17.675,-6.63,-7.49,0
17.696,-7.0,-8.71,0
17.716,-7.73,-9.2,0
17.736,-8.83,-9.57,0
17.755,-9.32,-9.81,0
17.755,-9.57,-9.93,0
17.776,-9.69,-9.93,0
17.795,-9.81,-9.93,0
17.816,-9.93,-10.06,0
17.836,-10.06,-10.06,0
17.856,-10.06,-10.06,0
17.875,-10.06,-10.06,0
17.896,-10.06,-10.18,0
17.916,-9.93,-10.18,0
17.936,-10.18,-10.18,0
17.956,-10.18,-10.18,0
17.976,-10.3,-10.18,0
17.995,-10.18,-10.18,0
18.016,-10.3,-10.18,0
18.036,-10.18,-10.18,0
18.056,-10.18,-10.18,0
18.076,-10.18,-10.18,0
18.096,-10.18,-10.18,0
18.116,-10.18,-10.18,0
18.136,-10.3,-10.18,0
18.156,-10.18,-10.18,0
18.176,-10.18,-10.18,0
18.197,-10.18,-10.18,0
18.216,-10.18,-10.18,0
18.236,-10.18,-10.18,0
18.257,-10.3,-10.18,0
18.277,-10.18,-10.18,0
18.297,-10.3,-10.18,0
18.316,-10.18,-10.18,1
18.336,-10.18,-10.3,1
18.357,-10.18,-10.18,1
18.376,-10.18,-10.18,1
18.396,-10.3,-10.3,1
18.416,-10.3,-10.3,1
18.436,-10.18,-10.3,1
18.457,-10.3,-10.3,1
18.476,-10.3,-10.3,1
18.496,-10.18,-10.3,1
18.516,-10.3,-10.3,1
18.536,-10.3,-10.3,1
18.556,-10.3,-10.3,1
18.577,-10.18,-10.18,1
18.596,-9.57,-9.57,1
18.617,-8.96,-8.83,1
18.636,-8.47,-7.86,1
18.656,-7.98,-7.12,1
18.677,-7.25,-6.63,1
18.697,-6.51,-6.39,1
18.717,-6.02,-6.15,1
18.737,-5.41,-5.9,1
18.756,-5.05,-5.66,1
18.777,-4.92,-5.54,1
18.796,-4.68,-5.41,1
18.816,-4.68,-5.29,1
18.837,-4.68,-5.17,1
18.857,-4.68,-5.17,1
18.877,-4.68,-5.05,1
18.897,-4.31,-5.05,0
18.917,-4.19,-5.05,0
18.936,-4.07,-5.05,0
18.957,-4.07,-4.92,0
18.977,-4.07,-4.92,0
18.997,-4.31,-4.92,0
19.017,-4.31,-4.92,0
19.037,-4.19,-4.8,0
19.057,-4.07,-4.8,0
19.077,-3.95,-4.8,0
19.097,-3.95,-4.8,0
19.118,-3.95,-4.8,0
19.137,-4.07,-4.8,0
19.157,-4.19,-4.8,0
19.177,-4.19,-4.8,0
19.198,-4.07,-4.8,0
19.217,-3.82,-4.8,0
19.238,-3.82,-4.8,0
19.258,-3.82,-4.68,0
19.278,-3.82,-4.8,0
19.297,-4.07,-4.68,0
19.317,-4.07,-4.68,0
19.337,-4.07,-4.8,0
19.357,-3.95,-4.8,0
19.378,-3.82,-4.8,0
19.398,-3.82,-4.8,0
19.418,-3.82,-4.8,0
19.438,-3.82,-4.8,0
19.457,-3.95,-4.8,0
19.478,-3.82,-4.68,0
19.498,-3.82,-4.68,0
19.517,-3.82,-4.68,0
19.537,-3.7,-4.68,0
19.558,-3.7,-4.56,0
19.578,-3.82,-4.56,0
19.599,-3.82,-4.68,0
19.618,-4.19,-4.92,0
19.638,-5.54,-6.02,0
19.657,-6.39,-6.88,0
19.678,-6.88,-7.86,0
19.697,-7.25,-8.83,0
19.718,-8.22,-9.32,0
19.738,-8.96,-9.57,0
19.758,-9.45,-9.69,0
19.778,-9.69,-9.81,0
19.799,-9.81,-9.93,0
19.819,-9.93,-9.93,0
19.839,-10.06,-9.93,0
19.858,-10.06,-10.06,0
19.878,-10.06,-10.06,0
19.899,-10.06,-10.06,0
19.919,-10.06,-10.18,0
19.939,-10.06,-10.18,0
19.959,-10.18,-10.18,0
19.978,-10.3,-10.18,0
19.999,-10.18,-10.18,0
20.019,-10.18,-10.18,0
20.039,-10.18,-10.18,0
20.058,-10.18,-10.18,0
20.079,-10.18,-10.18,0
20.099,-10.18,-10.18,0
20.119,-10.18,-10.18,0
20.138,-10.18,-10.18,0
20.158,-10.18,-10.3,0
20.158,-10.18,-10.3,0
20.179,-10.18,-10.18,0
20.199,-10.06,-10.18,0
20.218,-10.18,-10.3,0
20.238,-10.3,-10.18,0
20.259,-10.3,-10.18,0
20.279,-10.3,-10.18,0
20.299,-10.18,-10.3,0
20.319,-10.3,-10.18,1
20.339,-10.18,-10.3,1
20.358,-10.18,-10.18,1
20.379,-10.18,-10.3,1
20.399,-10.3,-10.3,1
20.419,-10.18,-10.3,1
20.439,-10.18,-10.3,1
20.459,-10.3,-10.3,1
20.479,-10.3,-10.18,1
20.499,-10.3,-10.3,1
20.519,-10.3,-10.3,1
20.539,-10.3,-10.3,1
20.559,-10.3,-10.3,1
20.58,-10.06,-9.93,1
20.599,-9.32,-9.32,1
20.62,-8.83,-8.59,1
20.639,-8.35,-7.61,1
20.66,-7.73,-7.0,1
20.68,-6.88,-6.63,1
20.7,-6.39,-6.27,1
20.719,-5.9,-6.15,1
20.74,-5.29,-5.78,1
20.76,-4.92,-5.66,1
20.78,-4.8,-5.41,1
20.8,-4.68,-5.41,1
20.82,-4.56,-5.29,1
20.84,-4.68,-5.17,1
20.859,-4.68,-5.17,1
20.88,-4.68,-5.17,1
20.899,-4.31,-5.05,0
20.919,-4.07,-5.05,0
20.939,-4.07,-5.05,0
20.96,-4.07,-5.05,0
20.98,-4.07,-4.92,0
21.001,-4.31,-4.92,0
21.02,-4.31,-4.92,0
21.04,-4.07,-4.8,0
21.06,-4.07,-4.8,0
21.08,-3.95,-4.92,0
21.1,-3.95,-4.8,0
21.12,-3.95,-4.8,0
21.14,-4.07,-4.8,0
21.161,-4.19,-4.8,0
21.18,-4.19,-4.8,0
21.2,-3.95,-4.8,0
21.221,-3.82,-4.8,0
21.24,-3.82,-4.68,0
21.26,-3.95,-4.68,0
21.28,-3.82,-4.68,0
21.301,-4.07,-4.68,0
21.32,-4.07,-4.68,0
21.34,-4.07,-4.8,0
21.361,-4.07,-4.68,0
21.381,-3.95,-4.8,0
21.403,-3.95,-4.8,0
21.421,-3.95,-4.8,0
21.442,-3.95,-4.8,0
21.462,-3.95,-4.68,0
21.481,-3.95,-4.68,0
21.502,-3.95,-4.68,0
21.521,-3.82,-4.68,0
21.541,-3.7,-4.68,0
21.561,-3.82,-4.68,0
21.581,-3.82,-4.8,0
21.601,-3.95,-4.8,0
21.622,-4.68,-5.41,0
21.641,-5.78,-6.39,0
21.662,-6.63,-7.12,0
21.681,-7.0,-8.35,0
21.701,-7.49,-9.2,0
21.721,-8.47,-9.57,0
21.741,-9.2,-9.69,0
21.761,-9.45,-9.93,0
21.761,-9.69,-9.93,0
21.782,-9.81,-10.06,0
21.802,-9.93,-10.06,0
21.822,-10.06,-10.06,0
21.842,-10.06,-10.06,0
21.862,-10.06,-10.06,0
21.882,-10.06,-10.18,0
21.902,-10.06,-10.18,0
21.922,-10.06,-10.18,0
21.942,-10.18,-10.06,0
21.962,-10.18,-10.18,0
21.982,-10.18,-10.18,0
22.002,-10.18,-10.18,0
22.022,-10.18,-10.18,0
22.042,-10.18,-10.18,0
22.062,-10.18,-10.18,0
22.081,-10.18,-10.18,0
22.102,-10.18,-10.18,0
22.122,-10.18,-10.18,0
22.142,-10.18,-10.18,0
22.162,-10.18,-10.3,0
22.162,-10.06,-10.18,0
22.183,-10.18,-10.18,0
22.202,-10.3,-10.3,0
22.223,-10.3,-10.18,0
22.243,-10.3,-10.18,0
22.263,-10.3,-10.18,0
22.283,-10.3,-10.18,1
22.303,-10.18,-10.3,1
22.323,-10.18,-10.3,1
22.343,-10.18,-10.3,1
22.363,-10.18,-10.3,1
22.382,-10.18,-10.18,1
22.403,-10.3,-10.18,1
22.423,-10.3,-10.3,1
22.443,-10.3,-10.3,1
22.463,-10.3,-10.3,1
22.483,-10.3,-10.3,1
22.503,-10.3,-10.18,1
22.522,-10.3,-10.3,1
22.543,-10.3,-10.18,1
22.563,-9.69,-9.69,1
22.563,-9.08,-9.08,1
22.583,-8.59,-8.1,1
22.603,-8.1,-7.25,1
22.623,-7.37,-6.76,1
22.643,-6.51,-6.39,1
22.663,-6.15,-6.15,1
22.683,-5.66,-5.9,1
22.703,-5.17,-5.78,1
22.723,-4.92,-5.54,1
22.743,-4.8,-5.41,1
22.763,-4.68,-5.29,1
22.783,-4.68,-5.17,1
22.803,-4.68,-5.17,1
22.823,-4.68,-5.17,1
22.843,-4.56,-5.05,0
22.864,-4.19,-5.17,0
22.883,-4.07,-5.05,0
22.903,-4.07,-5.05,0
22.923,-4.07,-5.05,0
22.943,-4.19,-4.92,0
22.963,-4.31,-4.92,0
22.963,-4.19,-4.92,0
22.984,-4.19,-4.8,0
23.004,-4.07,-4.92,0
23.024,-4.07,-4.8,0
23.043,-4.07,-4.92,0
23.064,-4.07,-4.92,0
23.083,-4.07,-4.92,0
23.103,-4.19,-4.92,0
23.123,-4.31,-4.92,0
23.143,-3.95,-4.8,0
23.163,-3.82,-4.8,0
23.184,-3.95,-4.8,0
23.204,-3.95,-4.68,0
23.224,-3.95,-4.68,0
23.243,-4.19,-4.68,0
23.264,-4.19,-4.8,0
23.283,-4.19,-4.68,0
23.304,-4.07,-4.8,0
23.323,-3.95,-4.8,0
23.343,-3.95,-4.8,0
23.364,-3.95,-4.8,0
23.364,-3.95,-4.68,0
23.384,-4.07,-4.68,0
23.404,-4.07,-4.68,0
23.424,-3.95,-4.56,0
23.444,-3.82,-4.56,0
23.464,-3.7,-4.56,0
23.485,-3.82,-4.68,0
23.504,-3.82,-4.68,0
23.524,-4.07,-4.8,0
23.545,-5.29,-5.9,0
23.565,-6.15,-6.76,0
23.584,-6.76,-7.61,0
23.605,-7.12,-8.83,0
23.624,-7.98,-9.32,0
23.644,-8.83,-9.57,0
23.664,-9.2,-9.81,0
23.684,-9.45,-9.93,0
23.704,-9.57,-9.93,0
23.724,-9.81,-10.06,0
23.745,-9.93,-10.06,0
23.764,-10.06,-10.06,0
23.784,-10.06,-10.06,0
23.805,-10.06,-10.06,0
23.824,-10.18,-10.18,0
23.844,-10.06,-10.18,0
23.865,-10.06,-10.18,0
23.884,-10.18,-10.18,0
23.905,-10.3,-10.18,0
23.925,-10.3,-10.18,0
23.944,-10.18,-10.18,0
23.964,-10.18,-10.18,0
23.984,-10.18,-10.18,0
24.005,-10.18,-10.18,0
24.025,-10.3,-10.18,0
24.044,-10.18,-10.18,0
24.064,-10.3,-10.18,0
24.084,-10.18,-10.18,0
24.105,-10.18,-10.18,0
24.125,-10.06,-10.18,0
24.144,-10.18,-10.18,0
24.165,-10.3,-10.18,0
24.165,-10.3,-10.18,0
24.185,-10.3,-10.18,0
24.205,-10.3,-10.18,0
24.225,-10.18,-10.18,1
24.246,-10.18,-10.18,1
24.266,-10.18,-10.18,1
24.285,-10.3,-10.18,1
24.305,-10.3,-10.18,1
24.325,-10.3,-10.3,1
24.345,-10.18,-10.3,1
24.365,-10.3,-10.3,1
24.385,-10.3,-10.3,1
24.405,-10.3,-10.18,1
24.425,-10.3,-10.3,1
24.445,-10.3,-10.3,1
24.465,-10.3,-10.3,1
24.486,-10.06,-10.06,1
24.505,-9.32,-9.45,1
24.526,-8.83,-8.71,1
24.545,-8.35,-7.73,1
24.566,-7.73,-7.0,1
24.586,-7.0,-6.63,1
24.606,-6.39,-6.27,1
24.626,-5.9,-6.02,1
24.647,-5.41,-5.78,1
24.667,-5.05,-5.66,1
24.686,-4.92,-5.41,1
24.706,-4.8,-5.41,1
24.726,-4.68,-5.29,1
24.746,-4.68,-5.17,1
24.767,-4.8,-5.17,1
24.787,-4.68,-5.17,1
24.806,-4.44,-5.05,0
24.826,-4.19,-5.05,0
24.846,-4.07,-5.05,0
24.867,-4.07,-5.05,0
24.886,-4.07,-4.92,0
24.906,-4.31,-4.92,0
24.926,-4.19,-4.92,0
24.947,-4.31,-4.92,0
24.966,-4.07,-4.8,0
24.987,-3.95,-4.8,0
25.007,-4.07,-4.8,0
25.027,-4.07,-4.92,0
25.047,-4.07,-4.92,0
25.067,-4.19,-4.92,0
25.086,-4.31,-4.92,0
25.106,-4.19,-4.8,0
25.127,-3.95,-4.8,0
25.146,-3.82,-4.8,0
25.166,-3.95,-4.68,0
25.186,-3.95,-4.8,0
25.206,-3.95,-4.68,0
25.226,-4.07,-4.8,0
25.246,-4.19,-4.8,0
25.267,-4.07,-4.8,0
25.287,-3.95,-4.92,0
25.307,-3.95,-4.8,0
25.327,-3.82,-4.92,0
25.347,-3.95,-4.8,0
25.366,-3.95,-4.68,0
25.366,-4.07,-4.68,0
25.386,-4.07,-4.68,0
25.407,-3.82,-4.68,0
25.426,-3.82,-4.68,0
25.447,-3.7,-4.68,0
25.467,-3.82,-4.68,0
25.486,-3.82,-4.68,0
25.507,-4.44,-5.29,0
25.526,-5.66,-6.39,0
25.547,-6.39,-7.0,0
25.566,-6.88,-8.22,0
25.586,-7.49,-9.08,0
25.607,-8.35,-9.45,0
25.627,-9.2,-9.69,0
25.647,-9.45,-9.81,0
25.667,-9.57,-9.93,0
25.686,-9.69,-9.93,0
25.707,-9.93,-9.93,0
25.727,-10.06,-10.06,0
25.747,-10.06,-9.93,0
25.766,-10.06,-10.06,0
25.787,-10.06,-10.06,0
25.807,-10.06,-10.06,0
25.827,-10.06,-10.18,0
25.847,-10.18,-10.18,0
25.867,-10.3,-10.18,0
25.887,-10.3,-10.18,0
25.907,-10.3,-10.18,0
25.927,-10.18,-10.18,0
25.947,-10.18,-10.18,0
25.967,-10.18,-10.18,0
25.987,-10.3,-10.18,0
26.007,-10.18,-10.18,0
26.026,-10.18,-10.18,0
26.046,-10.18,-10.18,0
26.066,-10.18,-10.18,0
26.087,-10.18,-10.18,0
26.107,-10.18,-10.18,0
26.127,-10.3,-10.18,0
26.147,-10.3,-10.18,0
26.167,-10.3,-10.18,0
26.187,-10.3,-10.18,0
26.208,-10.3,-10.18,0
26.228,-10.18,-10.3,1
26.247,-10.18,-10.18,1
26.267,-10.18,-10.18,1
26.287,-10.3,-10.3,1
26.308,-10.18,-10.3,1
26.327,-10.3,-10.3,1
26.347,-10.3,-10.3,1
26.367,-10.18,-10.3,1
26.388,-10.18,-10.3,1
26.407,-10.3,-10.3,1
26.427,-10.42,-10.3,1
26.448,-10.3,-10.3,1
26.467,-10.3,-10.3,1
26.487,-9.81,-9.81,1
26.508,-9.2,-9.2,1
26.528,-8.71,-8.35,1
26.547,-8.22,-7.49,1
26.567,-7.61,-6.88,1
26.567,-6.76,-6.51,1
26.588,-6.27,-6.15,1
26.608,-5.78,-6.02,1
26.629,-5.29,-5.78,1
26.648,-5.05,-5.66,1
26.668,-4.8,-5.41,1
26.687,-4.8,-5.41,1
26.708,-4.68,-5.29,1
26.728,-4.8,-5.17,1
26.748,-4.8,-5.17,1
26.767,-4.68,-5.17,1
26.788,-4.31,-5.05,0
26.808,-4.19,-5.05,0
26.828,-4.07,-5.05,0
26.847,-4.07,-5.05,0
26.868,-4.07,-5.05,0
26.888,-4.31,-4.92,0
26.908,-4.31,-4.92,0
26.928,-4.19,-4.92,0
26.948,-4.07,-4.92,0
26.968,-4.07,-4.8,0
26.989,-3.95,-4.8,0
27.008,-4.07,-4.92,0
27.029,-4.07,-4.92,0
27.048,-4.19,-4.92,0
27.069,-4.19,-4.92,0
27.089,-4.07,-4.8,0
27.108,-3.82,-4.8,0
27.129,-3.82,-4.8,0
27.149,-3.82,-4.8,0
27.169,-3.95,-4.68,0
27.189,-4.07,-4.68,0
27.209,-4.07,-4.68,0
27.228,-4.07,-4.68,0
27.248,-4.07,-4.8,0
27.268,-3.95,-4.8,0
27.289,-3.82,-4.8,0
27.309,-3.95,-4.8,0
27.328,-3.95,-4.8,0
27.349,-3.95,-4.68,0
27.369,-3.95,-4.68,0
27.369,-3.95,-4.68,0
27.39,-3.82,-4.68,0
27.41,-3.7,-4.68,0
27.43,-3.7,-4.68,0
27.45,-3.82,-4.68,0
27.47,-3.95,-4.8,0
27.49,-4.92,-5.66,0
27.51,-6.02,-6.63,0
27.53,-6.76,-7.37,0
27.55,-7.12,-8.71,0
27.57,-7.73,-9.32,0
27.589,-8.71,-9.57,0
27.61,-9.32,-9.81,0
27.63,-9.57,-9.81,0
27.65,-9.69,-9.93,0
27.67,-9.93,-9.93,0
27.69,-9.93,-9.93,0
27.709,-10.06,-10.06,0
27.737,-10.06,-10.06,0
27.75,-10.18,-10.06,0
27.769,-10.06,-10.06,0
27.769,-10.06,-10.18,0
27.79,-10.06,-10.18,0
27.81,-10.18,-10.18,0
27.83,-10.18,-10.18,0
27.85,-10.3,-10.06,0
27.87,-10.18,-10.18,0
27.89,-10.18,-10.06,0
27.91,-10.18,-10.06,0
27.93,-10.18,-10.18,0
27.95,-10.18,-10.18,0
27.97,-10.3,-10.18,0
27.99,-10.3,-10.18,0
28.01,-10.18,-10.18,0
28.03,-10.18,-10.18,0
28.05,-10.18,-10.18,0
28.07,-10.18,-10.18,0
28.09,-10.18,-10.18,0
28.11,-10.3,-10.18,0
28.13,-10.3,-10.18,0
28.149,-10.3,-10.18,0
28.17,-10.18,-10.18,1
28.19,-10.18,-10.3,1
28.21,-10.18,-10.18,1
28.233,-10.18,-10.3,1
28.253,-10.18,-10.18,1
28.272,,,
28.291,-10.3,-10.18,1
28.31,-10.18,-10.18,1
28.33,-10.3,-10.18,1
28.351,-10.3,-10.3,1
28.372,-10.3,-10.3,1
28.396,-10.3,-10.3,1
28.417,,,
28.431,-10.3,-10.3,1
28.45,-10.3,-10.3,1
28.47,-10.3,-10.18,1
28.491,-9.69,-9.57,1
28.511,,,
28.53,-9.08,-8.96,1
28.55,-8.47,-7.98,1
28.57,-7.98,-7.25,1
28.577,,,
28.597,-7.12,-6.76,1
28.617,-6.63,-6.39,1
28.637,-6.15,-6.02,1
28.657,-5.66,-5.9,1
28.677,-5.17,-5.66,1
28.697,-4.92,-5.54,1
28.718,-4.8,-5.41,1
28.737,-4.68,-5.41,1
28.757,-4.68,-5.29,1
28.777,,,
28.797,-4.68,-5.17,1
28.817,-4.8,-5.17,1
28.837,-4.56,-5.05,0
28.857,-4.31,-5.05,0
28.877,-4.07,-5.17,0
28.897,-4.07,-5.05,0
28.918,-4.07,-5.05,0
28.937,-4.07,-4.92,0
28.957,-4.31,-4.92,0
28.977,-4.31,-4.92,0
28.998,-4.19,-4.92,0
29.018,-4.07,-4.92,0
29.037,,,
29.058,-4.07,-4.92,0
29.078,-4.07,-4.92,0
29.097,-4.07,-4.92,0
29.117,-4.07,-4.92,0
29.137,-4.31,-4.92,0
29.157,-4.19,-4.92,0
29.178,-4.07,-4.92,0
29.197,-3.82,-4.92,0
29.217,-3.82,-4.8,0
29.237,-3.82,-4.8,0
29.258,-3.95,-4.8,0
29.277,-4.19,-4.68,0
29.301,-4.19,-4.8,0
29.322,-4.19,-4.8,0
29.343,,,
29.357,-4.07,-4.8,0
29.377,-3.95,-4.92,0
29.388,-3.95,-4.92,0
29.408,,,
29.428,-3.95,-4.8,0
29.448,-3.95,-4.8,0
29.468,-4.07,-4.8,0
29.488,-4.07,-4.68,0
29.508,-3.95,-4.68,0
29.528,-3.82,-4.68,0
29.548,-3.82,-4.56,0
29.568,-3.82,-4.68,0
29.588,-3.82,-4.68,0
29.608,,,
29.628,-4.19,-4.92,0
29.648,-5.29,-6.02,0
29.668,-6.27,-6.76,0
29.688,-6.88,-7.73,0
29.708,-7.25,-8.83,0
29.728,-8.1,-9.32,0
29.748,-8.96,-9.57,0
29.768,-9.32,-9.81,0
29.788,-9.45,-9.93,0
29.801,,,
29.821,-9.69,-9.93,0
29.841,-9.93,-9.93,0
29.862,-10.06,-10.06,0
29.882,-10.06,-10.06,0
29.902,-10.06,-10.06,0
29.922,-10.06,-10.06,0
29.942,,,
29.962,-10.06,-10.06,0
29.982,-10.06,-10.18,0
30.001,-10.18,-10.18,0
30.022,-10.18,-10.18,0
30.042,-10.3,-10.18,0
30.063,-10.18,-10.18,0
30.087,-10.18,-10.18,0
30.108,,,
30.122,-10.18,-10.18,0
30.142,-10.18,-10.18,0
30.162,-10.18,-10.18,0
30.182,-10.18,-10.18,0
30.207,-10.18,-10.18,0
30.229,-10.18,-10.18,0
30.256,-10.18,-10.18,0
30.276,,,
30.287,-10.18,-10.18,0
30.307,-10.18,-10.18,0
30.327,-10.18,-10.18,0
30.349,-10.3,-10.18,0
30.374,-10.3,-10.18,0
30.393,-10.3,-10.18,0
30.419,,,
30.427,-10.3,-10.18,0
30.448,,,
30.467,-10.3,-10.18,1
30.487,-10.18,-10.18,1
30.507,-10.18,-10.18,1
30.527,-10.18,-10.3,1
30.547,-10.3,-10.18,1
30.567,-10.3,-10.18,1
30.588,,,
30.608,-10.3,-10.3,1
30.613,-10.18,-10.18,1
30.637,-10.3,-10.18,1
30.661,-10.3,-10.3,1
30.686,-10.3,-10.3,1
30.711,-10.3,-10.3,1
30.73,,,
30.736,-10.3,-10.18,1
30.756,,,
30.773,-10.06,-9.93,1
30.793,-9.32,-9.32,1
30.813,-8.83,-8.59,1
30.833,-8.35,-7.61,1
30.853,-7.86,-7.0,1
30.873,-6.88,-6.63,1
30.894,-6.27,-6.27,1
30.913,-5.9,-6.02,1
30.936,-5.41,-5.78,1
30.957,-5.17,-5.66,1
30.977,-4.92,-5.54,1
30.998,,,
31.013,-4.68,-5.41,1
31.034,-4.68,-5.29,1
31.053,-4.68,-5.17,1
31.074,-4.8,-5.17,1
31.093,-4.68,-5.17,1
31.114,-4.44,-5.17,0
31.134,-4.31,-5.05,0
31.154,-4.07,-5.05,0
31.174,-4.07,-5.05,0
31.194,,,
31.214,-4.07,-4.92,0
31.233,-4.19,-4.92,0
31.254,-4.31,-4.92,0
31.274,-4.19,-4.92,0
31.294,-4.07,-4.92,0
31.314,-4.07,-4.92,0
31.334,-4.07,-4.92,0
31.353,-4.07,-4.92,0
31.374,-4.07,-4.92,0
31.394,,,
31.414,-4.31,-4.92,0
31.414,-4.31,-4.92,0
31.435,-4.07,-4.92,0
31.456,,,
31.474,-4.07,-4.8,0
31.495,-3.95,-4.8,0
31.515,-3.95,-4.8,0
31.535,-4.07,-4.8,0
31.555,-3.95,-4.8,0
31.575,-4.19,-4.8,0
31.595,-4.19,-4.8,0
31.615,-4.07,-4.8,0
31.635,-4.19,-4.92,0
31.657,-4.07,-4.92,0
31.677,-3.95,-4.92,0
31.698,-3.95,-4.92,0
31.722,-3.95,-4.8,0
31.742,-4.07,-4.8,0
31.763,-3.95,-4.68,0
31.787,-3.95,-4.68,0
31.808,-3.95,-4.68,0
31.829,-3.82,-4.68,0
31.853,-3.82,-4.68,0
31.874,-3.95,-4.68,0
31.894,,,
31.909,-4.56,-5.41,0
31.93,-5.78,-6.39,0
31.949,-6.51,-7.12,0
31.969,-7.0,-8.35,0
31.989,-7.49,-9.08,0
32.01,-8.47,-9.45,0
32.03,-9.08,-9.69,0
32.05,-9.45,-9.81,0
32.07,-9.69,-9.93,0
32.091,,,
32.109,-9.81,-9.93,0
32.13,-9.93,-9.93,0
32.15,-9.93,-9.93,0
32.17,-10.06,-9.93,0
32.19,-10.06,-10.06,0
32.21,-10.06,-10.06,0
32.233,-10.06,-10.06,0
32.251,,,
32.272,-10.06,-10.06,0
32.292,-10.18,-10.06,0
32.312,-10.18,-10.06,0
32.332,-10.18,-10.18,0
32.352,-10.18,-10.06,0
32.374,-10.18,-10.06,0
32.398,-10.18,-10.18,0
32.419,,,
32.432,-10.18,-10.18,0
32.452,-10.18,-10.18,0
32.472,-10.18,-10.18,0
32.492,-10.18,-10.18,0
32.517,-10.18,-10.18,0
32.541,-10.18,-10.3,0
32.565,-10.18,-10.18,0
32.586,,,
32.592,-10.18,-10.18,0
32.612,-10.18,-10.18,0
32.636,-10.3,-10.18,0
32.66,-10.3,-10.18,0
32.685,-10.3,-10.18,0
32.709,-10.18,-10.18,0
32.729,,,
32.741,-10.18,-10.18,1
32.761,-10.18,-10.18,1
32.78,-10.18,-10.18,1
32.803,-10.3,-10.18,1
32.828,-10.18,-10.18,1
32.853,-10.18,-10.18,1
32.877,-10.3,-10.18,1
32.897,,,
32.901,,,
32.92,-10.3,-10.18,1
32.941,-10.3,-10.3,1
32.96,-10.3,-10.18,1
32.981,-10.3,-10.18,1
33.001,-10.3,-10.18,1
33.02,-10.3,-10.3,1
33.041,,,
33.061,-9.81,-9.81,1
33.081,-9.2,-9.32,1
33.101,-8.71,-8.47,1
33.121,-8.22,-7.49,1
33.142,-7.61,-6.88,1
33.161,-6.76,-6.51,1
33.181,-6.15,-6.27,1
33.201,-5.66,-6.02,1
33.222,-5.29,-5.78,1
33.242,-5.05,-5.54,1
33.262,-4.92,-5.54,1
33.283,-4.68,-5.41,1
33.307,-4.68,-5.29,1
33.328,-4.68,-5.17,1
33.348,-4.8,-5.17,1
33.373,-4.56,-5.17,1
33.394,-4.44,-5.17,0
33.413,,,
33.421,-4.19,-5.17,0
33.441,-4.07,-5.17,0
33.461,-4.07,-5.17,0
33.481,,,
33.501,-4.19,-5.05,0
33.521,-4.31,-5.05,0
33.541,-4.31,-4.92,0
33.562,-4.19,-4.92,0
33.582,-4.19,-4.92,0
33.602,-4.07,-4.92,0
33.622,-4.07,-4.92,0
33.642,-4.07,-4.92,0
33.662,-4.07,-4.92,0
33.682,-4.31,-4.92,0
33.701,-4.19,-4.92,0
33.721,-4.19,-4.92,0
33.741,,,
33.762,-4.07,-4.8,0
33.781,-3.95,-4.8,0
33.801,-3.95,-4.68,0
33.821,-3.95,-4.8,0
33.841,-4.07,-4.68,0
33.862,-4.07,-4.68,0
33.882,-4.07,-4.68,0
33.902,-3.95,-4.68,0
33.922,-3.95,-4.68,0
33.942,-3.95,-4.68,0
33.963,-3.82,-4.68,0
33.982,-3.82,-4.56,0
34.004,,,
34.022,-3.7,-4.56,0
34.042,-3.7,-4.44,0
34.063,-3.7,-4.31,0
34.082,-3.58,-4.31,0
34.103,-3.58,-4.31,0
34.123,-3.46,-4.31,0
34.142,-3.46,-4.31,0
34.162,-3.58,-4.44,0
34.182,-4.56,-5.29,0
34.202,,,
34.222,-5.66,-6.27,0
34.242,-6.51,-7.12,0
34.262,-6.88,-8.47,0
34.282,-7.61,-9.2,0
34.303,-8.59,-9.57,0
34.322,-9.2,-9.81,0
34.343,-9.57,-9.93,0
34.363,-9.81,-10.06,0
34.383,-9.93,-10.06,0
34.402,-10.06,-10.18,0
34.426,-10.18,-10.18,0
34.45,-10.18,-10.18,0
34.475,-10.18,-10.3,0
34.495,,,
34.502,-10.18,-10.3,0
34.523,,,
34.543,-10.3,-10.3,0
34.563,-10.3,-10.42,0
34.583,-10.3,-10.42,0
34.603,-10.42,-10.3,0
34.623,-10.42,-10.3,0
34.642,-10.3,-10.3,0
34.664,,,
34.684,-10.3,-10.3,0
34.704,-10.3,-10.3,0
34.724,-10.3,-10.3,0
34.744,-10.42,-10.3,0
34.765,-10.3,-10.42,0
34.786,-10.3,-10.42,0
34.806,,,
34.825,-10.3,-10.42,0
34.844,-10.3,-10.42,0
34.865,-10.3,-10.42,0
34.884,-10.3,-10.42,0
34.904,-10.42,-10.42,0
34.929,-10.42,-10.42,0
34.954,-10.42,-10.42,0
34.974,,,
34.984,-10.42,-10.42,0
35.005,-10.42,-10.42,1
35.025,-10.42,-10.42,1
35.048,-10.3,-10.42,1
35.073,-10.42,-10.42,1
35.097,-10.42,-10.42,1
35.121,-10.42,-10.42,1
35.142,,,
35.154,-10.42,-10.42,1
35.174,-10.42,-10.42,1
35.193,-10.3,-10.42,1
35.216,-10.42,-10.42,1
35.24,-10.42,-10.42,1
35.265,-10.54,-10.42,1
35.286,,,
35.294,-10.42,-10.54,1
35.313,,,
35.333,-10.3,-10.3,1
35.353,-9.69,-9.69,1
35.374,-9.2,-9.08,1
35.393,-8.59,-8.1,1
35.413,-8.1,-7.25,1
35.434,-7.25,-6.76,1
35.453,-6.51,-6.39,1
35.473,-6.15,-6.15,1
35.49,-5.54,-5.9,1
35.511,-5.29,-5.66,1
35.531,-4.8,-5.41,1
35.555,-4.68,-5.29,1
35.576,-4.56,-5.17,1
35.597,-4.56,-5.05,1
35.621,-4.68,-5.05,1
35.641,-4.56,-4.92,1
35.662,,,
35.671,-4.31,-4.92,0
35.69,-4.07,-4.92,0
35.711,-3.95,-4.8,0
35.731,,,
35.751,-3.82,-4.8,0
35.771,-3.82,-4.68,0
35.79,-3.95,-4.68,0
35.81,-4.07,-4.68,0
35.831,-3.95,-4.56,0
35.85,-3.95,-4.56,0
35.871,-3.82,-4.56,0
35.891,-3.82,-4.56,0
35.905,-3.82,-4.56,0
35.925,,,
35.945,-3.7,-4.56,0
35.965,-3.82,-4.68,0
35.985,-3.82,-4.56,0
36.005,-3.82,-4.68,0
36.025,-3.7,-4.68,0
36.045,-3.58,-4.56,0
36.065,-3.58,-4.56,0
36.085,-3.7,-4.44,0
36.105,-3.7,-4.44,0
36.125,,,
36.145,-3.82,-4.44,0
36.165,-3.82,-4.56,0
36.185,-3.82,-4.56,0
36.205,-3.82,-4.56,0
36.225,-3.82,-4.56,0
36.245,-3.58,-4.56,0
36.265,-3.58,-4.56,0
36.285,-3.7,-4.56,0
36.306,-3.7,-4.44,0
36.318,,,
36.339,-3.58,-4.44,0
36.358,-3.58,-4.31,0
36.378,-3.58,-4.31,0
36.399,-3.46,-4.31,0
36.418,-3.58,-4.44,0
36.438,-3.58,-4.56,0
36.458,-3.95,-5.17,0
36.479,-5.29,-6.39,0
36.498,-6.15,-7.25,0
36.519,-6.76,-8.35,0
36.539,-7.25,-9.08,0
36.56,-8.22,-9.32,0
36.584,-8.96,-9.45,0
36.604,-9.45,-9.45,0
36.624,-9.69,-9.57,0
36.65,-9.81,-9.57,0
36.67,-9.93,-9.57,0
36.69,-10.18,-9.45,0
36.715,-10.18,-9.57,0
36.736,,,
36.757,-10.18,-9.57,0
36.777,-10.18,-9.57,0
36.797,-10.18,-9.57,0
36.816,-10.18,-9.57,0
36.836,-10.3,-9.57,0
36.856,-10.42,-9.57,0
36.878,-10.42,-9.57,0
36.899,-10.3,-9.57,0
36.919,-10.3,-9.57,0
36.945,-10.3,-9.57,0
36.963,,,
36.976,-10.3,-9.57,0
36.998,-10.3,-9.57,0
37.019,-10.42,-9.57,0
37.036,-10.42,-9.57,0
37.059,-10.42,-9.57,0
37.079,,,
37.096,-10.3,-9.57,0
37.116,-10.3,-9.57,0
